frame,timestamp,rx,ry,rz,ax,ay,az
0,0.0,0.70200925278,0.09214537233,-0.70573767825,-0.00439453125,0.927734375,0.3828125
1,0.017,0.95927061021,-0.20293287201000001,-0.71692295466,-0.0029296875,0.80078125,0.40966796875
2,0.033,1.1398329294,0.13262542029000002,-0.7403587719000001,0.01904296875,0.78955078125,0.48388671875
3,0.05,1.27991520063,0.41278996275,-0.7185208512900001,-0.0029296875,0.869140625,0.4287109375
4,0.067,1.2980246957700001,0.53689326768,-0.7850998775400001,0.00390625,0.92724609375,0.46142578125
5,0.083,0.94755270159,0.73556508201,-0.9853695885000001,0.0439453125,0.990234375,0.439453125
6,0.1,0.62211442128,0.60560282277,-1.04715492486,0.05224609375,1.04833984375,0.38427734375
7,0.117,0.57257962575,-0.35366778744000005,-0.7755124977600001,-0.0185546875,0.90869140625,0.37841796875
8,0.133,0.013315805250000002,-0.45699843618,0.36112463838000003,-0.091796875,0.9462890625,0.3349609375
9,0.15,0.013848437460000002,-0.6604639404,0.45699843618,-0.08203125,0.9189453125,0.39013671875
10,0.167,-0.34035198219,-0.46179212607000003,0.59015648868,-0.0390625,0.94580078125,0.35986328125
11,0.183,-0.5060005995,-0.38136466236000005,0.6285060078,-0.05810546875,0.94189453125,0.3515625
12,0.2,-0.37071201816000005,-0.5075984961300001,0.54967644072,-0.0546875,0.9091796875,0.40283203125
13,0.217,-0.31052457843000003,-0.60507019056,0.25140240312,-0.07177734375,0.8720703125,0.38818359375
14,0.233,0.15126754764,-0.65567025051,0.20719392969,-0.0849609375,0.89404296875,0.3974609375
15,0.25,0.18162758361,-0.97311904767,0.37657097247000004,-0.060546875,0.8525390625,0.44775390625
16,0.267,-0.2503371387,-1.08816760503,0.54967644072,-0.03076171875,0.85205078125,0.43359375
17,0.28300000000000003,-0.19441075665000002,-0.82504729329,0.7291734954900001,-0.0322265625,0.82177734375,0.4716796875
18,0.3,-0.13582121355000001,-0.8516789037900001,0.5528722339800001,0.06005859375,0.8955078125,0.451171875
19,0.317,0.0798948315,-0.38242992678000004,0.31105721064,0.078125,0.9091796875,0.43212890625
20,0.333,0.23382554019000001,-0.43036682568,0.25513082859,0.04541015625,0.83984375,0.4912109375
21,0.35000000000000003,0.56032908492,-0.66951868797,-0.06924218730000001,-0.0263671875,0.81103515625,0.55859375
22,0.367,0.50333743845,-0.16831177836,-0.5219795658,0.01025390625,0.81787109375,0.5537109375
23,0.383,0.30732878517,0.47564056353,-0.56885120028,-0.025390625,0.837890625,0.49560546875
24,0.4,0.21891183831000002,0.84848311053,-0.16884441057000002,-0.04736328125,0.83544921875,0.47802734375
25,0.417,0.14061490344000002,0.74994615168,-0.06498112962000001,-0.02880859375,0.9013671875,0.53759765625
26,0.433,0.18748653792,0.6231796857,-0.21092235516000002,-0.0166015625,0.9443359375,0.49658203125
27,0.45,0.09693906222000001,0.52251219801,-0.19813918212,-0.0146484375,0.97265625,0.48583984375
28,0.467,-0.07030745172000001,0.27217505931,-0.053263221000000006,0.00244140625,0.95556640625,0.46337890625
29,0.483,-0.13635384576,0.02343581724,0.06657902625,-0.00048828125,0.935546875,0.45263671875
30,0.5,-0.20346550422,-0.04207794459,0.0,0.0146484375,0.94921875,0.50537109375
31,0.517,-0.61572283476,0.24820660986,0.15073491543,0.00390625,0.927734375,0.46826171875
32,0.533,-0.7430219329500001,0.69029134416,0.01651159851,-0.04296875,0.95849609375,0.4365234375
33,0.55,-0.69401976963,0.8740494566100001,-0.15393070869,-0.0478515625,0.99853515625,0.4013671875
34,0.5670000000000001,-0.61732073139,0.8202536034000001,-0.47990162121,-0.0166015625,0.95751953125,0.37158203125
35,0.583,-1.18936772493,1.18137824178,-0.20240023980000002,0.03173828125,0.9267578125,0.4150390625
36,0.6,-1.4556838299300001,1.22026039311,-0.25992451848000003,0.00732421875,0.89794921875,0.3828125
37,0.617,-1.2389025204600002,0.83729783412,-0.30146983086,-0.02001953125,0.88427734375,0.2734375
38,0.633,-0.86020101915,0.60240702951,-0.27750138141,-0.03466796875,0.9482421875,0.228515625
39,0.65,-0.45966159723000005,0.46978160922,-0.47777109237000004,-0.1083984375,0.9287109375,0.17822265625
40,0.667,-0.07723167045000001,0.08202536034,-0.24554344881,-0.13232421875,0.89013671875,0.26953125
41,0.683,0.20559603306000002,-0.14700648996000001,-0.24927187428000003,-0.16162109375,0.88134765625,0.3193359375
42,0.7000000000000001,0.36325516722,-0.25406556417000004,-0.26951189826,-0.166015625,0.853515625,0.36181640625
43,0.717,0.46711844817000003,-0.47777109237000004,-0.10652644200000001,-0.15625,0.8740234375,0.37890625
44,0.733,0.5305016811600001,-0.42770366463000004,-0.0159789663,-0.1259765625,0.90576171875,0.3828125
45,0.75,0.31691616495,-0.16777914615,0.013315805250000002,-0.09228515625,1.00390625,0.37060546875
46,0.767,0.02450108166,-0.13049489145,0.05432848542,-0.09423828125,1.07275390625,0.31005859375
47,0.783,-0.03408846144,-0.44421526314000004,0.06711165846,-0.103515625,1.072265625,0.265625
48,0.8,-0.16937704278000001,-0.9129316079400001,0.22849921809,-0.0869140625,1.00341796875,0.326171875
49,0.8170000000000001,-0.23702133345,-1.0492854537,0.21571604505000003,-0.07373046875,0.91796875,0.3974609375
50,0.833,-0.10333064874,-0.6641923658700001,0.09427590117000001,-0.1064453125,0.83349609375,0.44189453125
51,0.85,-0.27057716268000004,-0.08841694686000001,0.15499597311000002,-0.0849609375,0.85595703125,0.48681640625
52,0.867,-0.44048683767,0.25246766754,0.09001484349000001,-0.10595703125,0.896484375,0.4306640625
53,0.883,-0.30200246307,0.35952674175000005,-0.1278317304,-0.1328125,0.939453125,0.39599609375
54,0.9,-0.08841694686000001,0.02450108166,-0.0852211536,-0.123046875,0.9453125,0.373046875
55,0.917,-0.04474110564,-0.25779398964,-0.04740426669,-0.11328125,0.900390625,0.3984375
56,0.933,-0.00585895431,-0.15872439858,-0.04207794459,-0.111328125,0.88427734375,0.42236328125
57,0.9500000000000001,-0.16192019184,-0.039414783540000005,0.05113269216000001,-0.07763671875,0.93994140625,0.41943359375
58,0.967,-0.22530342483000002,-0.07723167045000001,0.014381069670000001,-0.10693359375,0.9638671875,0.3662109375
59,0.983,-0.12303804051,-0.15765913416000002,-0.12250540830000001,-0.1083984375,0.966796875,0.37060546875
60,1.0,0.03834951912,-0.38722361667000005,-0.014913701880000001,-0.15234375,0.9375,0.35888671875
61,1.0170000000000001,0.22104236715,-0.44581315977,0.18748653792,-0.14892578125,0.89697265625,0.4365234375
62,1.033,0.22743395367000002,-0.32384038368,0.25779398964,-0.1513671875,0.88525390625,0.43115234375
63,1.05,0.30040456644,-0.22690132146000003,0.30253509528,-0.140625,0.85302734375,0.45703125
64,1.067,0.11504855736000001,-0.13954963902,0.26791400163,-0.0908203125,0.86962890625,0.509765625
65,1.083,-0.020772656190000002,0.0037284254700000003,0.09747169443,-0.103515625,0.91162109375,0.44384765625
66,1.1,0.01810949514,0.023968449450000002,0.07350324498000001,-0.11376953125,0.93408203125,0.412109375
67,1.117,0.00106526442,0.019707391770000002,0.0905474757,-0.095703125,0.9248046875,0.43212890625
68,1.133,-0.07510114161,0.19920444654000002,0.18429074466,-0.1005859375,0.85986328125,0.45263671875
69,1.1500000000000001,-0.06072007194,0.47457529911,0.26152241511,-0.0771484375,0.822265625,0.4619140625
70,1.167,-0.49268479425000006,0.44847632082000005,0.12303804051,-0.00830078125,0.919921875,0.525390625
71,1.183,-0.27430558815,0.41492049159000005,-0.15819176637000001,-0.166015625,0.93701171875,0.3525390625
72,1.2,-0.18908443455,0.42024681369000005,-0.26471820837000004,-0.05859375,1.04296875,0.35595703125
73,1.217,-0.29614350876,0.15659386974,-0.15819176637000001,-0.05419921875,1.06689453125,0.333984375
74,1.233,0.3515372586,0.052730588790000005,0.41492049159000005,-0.24072265625,0.96484375,0.35546875
75,1.25,0.27696874920000003,0.08894957907,0.3675162249,-0.0068359375,0.90478515625,0.35400390625
76,1.2670000000000001,-0.00958737978,-0.0426105768,-0.00852211536,-0.0478515625,0.92919921875,0.37646484375
77,1.283,0.053263221000000006,-0.16671388173,-0.16777914615,-0.11474609375,0.90673828125,0.38671875
78,1.3,0.18482337687,-0.10279801653000001,-0.05805691089,-0.08984375,0.91455078125,0.39599609375
79,1.317,0.057524278680000006,-0.013315805250000002,-0.022903185030000002,-0.0556640625,0.88134765625,0.41357421875
80,1.333,-0.0639158652,0.11771171841000001,0.07243798056,-0.11328125,0.82080078125,0.44140625
81,1.35,0.046339002270000006,0.28975192224,0.1118527641,-0.15478515625,0.8173828125,0.439453125
82,1.367,0.30839404959,0.49108689762,0.10333064874,-0.1318359375,0.95654296875,0.39794921875
83,1.383,0.39468046761000003,0.3462109365,-0.0037284254700000003,-0.0634765625,1.103515625,0.36376953125
84,1.4000000000000001,0.18162758361,0.15499597311000002,-0.017576862930000003,-0.06201171875,1.12548828125,0.39892578125
85,1.417,0.14540859333,0.12197277609000001,0.05113269216000001,-0.09375,1.02978515625,0.435546875
86,1.433,0.14540859333,0.30839404959,0.16458335289,-0.07861328125,0.91015625,0.46728515625
87,1.45,0.27537085257,0.6423544452600001,0.18855180234000002,-0.083984375,0.90380859375,0.4365234375
88,1.467,0.7243798056,0.6077333516100001,0.1171790862,-0.07568359375,1.00048828125,0.34814453125
89,1.483,0.97045588662,0.65993130819,0.12410330493,0.0380859375,1.16748046875,0.3388671875
90,1.5,0.5539374984000001,0.14274543228,-0.22317289599,0.04931640625,1.12255859375,0.3408203125
91,1.5170000000000001,0.26312031174,0.26312031174,0.15819176637000001,0.0146484375,1.0107421875,0.3271484375
92,1.5330000000000001,0.13688647797,0.5219795658,0.46711844817000003,0.03271484375,1.03076171875,0.34765625
93,1.55,0.1704423072,0.42397523916,0.23648870124000002,0.03466796875,1.10986328125,0.33984375
94,1.567,0.23382554019000001,0.20346550422,-0.16831177836,-0.0048828125,1.1044921875,0.3876953125
95,1.583,0.41758365264,0.12623383377,-0.24394555218000002,-0.05859375,1.0576171875,0.38818359375
96,1.6,0.7440871973700001,0.14114753565000002,0.08468852139000001,-0.0009765625,1.03955078125,0.36474609375
97,1.617,0.79468725732,0.26525084058000004,0.46072686165000004,0.12158203125,1.14599609375,0.35986328125
98,1.633,0.43143209010000005,0.30519825633000003,0.6205165246500001,0.20654296875,1.25830078125,0.26513671875
99,1.6500000000000001,-0.159789663,0.27430558815,0.50333743845,0.23291015625,1.265625,0.203125
100,1.667,-0.52251219801,-0.02450108166,-0.00053263221,0.119140625,1.19140625,0.2275390625
101,1.683,-0.39521309982,-0.13156015587,-0.44847632082000005,-0.0458984375,1.0263671875,0.27734375
102,1.7,-0.06072007194,0.061252704150000004,-0.5986786040400001,-0.0625,0.8447265625,0.32958984375
103,1.717,0.31798142937,0.36645096048000003,-0.08255799255,-0.01708984375,0.91552734375,0.27099609375
104,1.733,0.39414783540000004,0.36432043164,0.25246766754,0.0380859375,1.0283203125,0.2509765625
105,1.75,-0.15393070869,0.16990967499,0.32756880915000003,0.07177734375,0.93701171875,0.482421875
106,1.7670000000000001,-1.09509182376,0.25300029975,-0.00852211536,0.017578125,0.87451171875,0.5078125
107,1.7830000000000001,-1.33424368605,0.7563377382,-0.3142530039,-0.1220703125,0.8447265625,0.3837890625
108,1.8,-0.7078682070900001,1.2245214507900002,-0.08255799255,-0.2080078125,1.05419921875,0.26025390625
109,1.817,0.06924218730000001,0.80640516594,-0.10759170642,-0.10791015625,1.39404296875,0.1875
110,1.833,0.35473305186000004,-0.11398329294000001,-0.37603834026000005,-0.16357421875,1.171875,0.1435546875
111,1.85,0.48043425342,-0.08894957907,0.04740426669,-0.12939453125,1.04443359375,0.2353515625
112,1.867,0.86020101915,-0.11611382178,0.63969128421,-0.16455078125,0.93408203125,0.3232421875
113,1.883,1.28950258041,1.2745888785300001,0.24394555218000002,-0.09716796875,0.763671875,-0.0263671875
114,1.9000000000000001,1.16806243653,1.1595403211700002,0.8111988558300001,0.13818359375,1.13720703125,0.20849609375
115,1.917,0.6988134595200001,0.06977481951,0.12623383377,-0.12158203125,1.19091796875,0.09375
116,1.933,1.1760519196800001,-0.15126754764,-0.19014969897,-0.11181640625,0.923828125,0.048828125
117,1.95,1.2410330493000001,0.14221280007,0.10173275211,-0.013671875,0.830078125,0.1591796875
118,1.967,0.7765777621800001,0.13475594913,0.56192698155,0.109375,0.9306640625,0.12255859375
119,1.983,0.21571604505000003,-0.06870955509,0.56831856807,0.119140625,0.98291015625,0.10302734375
120,2.0,-0.1331580525,0.03621899028,0.72384717339,0.0732421875,1.0078125,0.1044921875
121,2.017,0.26205504732,0.00213052884,0.7771103943900001,-0.0390625,1.12255859375,0.17041015625
122,2.033,0.8628641802000001,-0.0106526442,0.42930156126,0.0283203125,1.068359375,0.24853515625
123,2.05,1.1930961504000002,0.28868665782,0.34567830429,-0.0078125,0.8427734375,0.20654296875
124,2.067,1.06686231663,0.5747101545900001,0.53689326768,0.06201171875,0.8173828125,0.12353515625
125,2.083,0.88203893976,0.80214410826,0.58962385647,0.0380859375,0.8740234375,0.01953125
126,2.1,0.49002163320000003,0.9092031824700001,0.43569314778,0.1484375,0.9609375,0.224609375
127,2.117,0.42131207811000004,-0.21092235516000002,0.09587379780000001,0.11083984375,0.9560546875,0.14013671875
128,2.133,0.40107205413,-0.16351808847000002,-0.23489080461,0.15673828125,0.68408203125,0.18994140625
129,2.15,0.26365294395,0.30999194622000004,-0.10918960305,0.1591796875,0.658203125,0.2177734375
130,2.1670000000000003,0.14327806449,0.6317018010600001,0.04474110564,0.15380859375,0.78857421875,0.20654296875
131,2.183,0.09321063675,0.5113269216,-0.04101268017,0.07763671875,0.93505859375,0.21240234375
132,2.2,0.34354777545000004,0.3515372586,-0.30519825633000003,0.01953125,0.90234375,0.22705078125
133,2.217,0.49641321972,0.65620288272,-0.33981934998,0.12353515625,0.87109375,0.193359375
134,2.233,0.37657097247000004,0.8671252378800001,-0.30945931401000004,0.24755859375,1.01513671875,0.158203125
135,2.25,0.12676646598000002,0.6870955509000001,-0.12463593714000001,0.2060546875,1.16357421875,0.0791015625
136,2.267,0.023968449450000002,0.24021712671,0.08468852139000001,0.0947265625,1.19189453125,0.09326171875
137,2.283,0.08309062476000001,0.10812433863000001,0.22690132146000003,0.0732421875,1.0947265625,0.11865234375
138,2.3000000000000003,0.04740426669,0.2237055282,0.27004453047000004,0.14501953125,1.0166015625,0.16796875
139,2.317,-0.02929477155,0.40852890507,0.21997710273,0.21923828125,0.9912109375,0.125
140,2.333,-0.19494338886,0.5086637605500001,0.26684873721,0.19482421875,1.060546875,0.04443359375
141,2.35,-0.12037487946000001,0.27643611699000004,0.22849921809,0.0380859375,1.1259765625,0.0166015625
142,2.367,0.19654128549000002,0.20186760759000003,0.09427590117000001,-0.0712890625,1.04638671875,0.001953125
143,2.383,0.47883635679000003,0.38775624888000004,0.0015978966300000002,-0.06787109375,1.0419921875,0.01904296875
144,2.4,0.65939867598,0.40533311181000004,-0.10652644200000001,0.01171875,1.04443359375,0.04052734375
145,2.4170000000000003,0.6077333516100001,0.25086977091,-0.16564861731000002,0.1240234375,0.9912109375,0.0146484375
146,2.433,0.17417073267000002,0.10333064874,-0.03142530039,0.15283203125,0.9931640625,-0.04443359375
147,2.45,-0.08096009592,-0.13688647797,-0.13582121355000001,0.0625,0.99951171875,-0.06689453125
148,2.467,0.05805691089,-0.15339807648,-0.54594801525,-0.0205078125,0.9423828125,-0.00830078125
149,2.483,0.42504050358,-0.07563377382,-0.9859022207100001,-0.02099609375,0.90576171875,0.0517578125
150,2.5,0.53423010663,0.061252704150000004,-0.9326389997100001,0.0849609375,0.83642578125,0.12451171875
151,2.517,-0.007456850940000001,0.18961706676,-0.33396039567,0.12451171875,0.8720703125,0.0009765625
152,2.533,-0.44048683767,0.22956448251,0.03834951912,0.10498046875,0.94921875,-0.11474609375
153,2.5500000000000003,-0.57843858006,0.13475594913,0.02503371387,0.05322265625,0.98681640625,-0.07666015625
154,2.567,-0.47617319574000005,0.09374326896,-0.22583605704,0.01953125,0.93505859375,0.02099609375
155,2.583,-0.29134981887,0.24607608102,-0.30519825633000003,0.02197265625,0.91943359375,0.03515625
156,2.6,-0.16245282405,0.27324032373,-0.23542343682000003,0.072265625,0.98876953125,-0.0244140625
157,2.617,-0.36538569606000004,0.12037487946000001,-0.059654807520000006,0.1142578125,0.98291015625,-0.0732421875
158,2.633,-0.6087986160300001,0.11025486747,0.10120011990000001,0.06982421875,1.05224609375,-0.12451171875
159,2.65,-0.5534048661900001,-0.11345066073000001,0.0106526442,0.03271484375,1.0830078125,-0.01171875
160,2.6670000000000003,-0.45486790734000004,-0.25193503533,-0.16138755963,0.0166015625,0.96240234375,0.09228515625
161,2.6830000000000003,-0.43888894104000004,-0.13795174239000002,-0.159789663,-0.0146484375,0.8837890625,0.06787109375
162,2.7,-0.27110979489000003,0.20346550422,-0.1651159851,0.01123046875,0.90185546875,-0.05712890625
163,2.717,-0.22849921809,0.30466562412000003,-0.31052457843000003,0.099609375,0.98974609375,-0.08740234375
164,2.733,-0.16671388173,0.18748653792,-0.50546796729,0.0546875,1.01513671875,-0.06396484375
165,2.75,-0.06231796857000001,0.041545312380000005,-0.57098172912,0.0068359375,0.994140625,-0.00390625
166,2.767,-0.25779398964,0.035153725860000005,-0.14753912217,-0.044921875,0.9970703125,-0.00146484375
167,2.783,-0.35313515523,-0.12623383377,0.23009711472000002,-0.10302734375,1.08740234375,-0.1025390625
168,2.8000000000000003,-0.24288028776,-0.37763623689000003,0.10972223526000001,-0.04638671875,1.10009765625,-0.125
169,2.817,-0.27590348478000004,-0.41172469833,-0.18429074466,0.0771484375,0.8876953125,-0.033203125
170,2.833,-0.5912217531,-0.013315805250000002,-0.01917475956,0.06591796875,0.87255859375,0.01123046875
171,2.85,-0.6530070894600001,0.13422331692,0.14966965101000002,-0.1064453125,1.06396484375,-0.05029296875
172,2.867,-0.48096688563,0.05379585321,0.17843179035,-0.1328125,1.099609375,-0.04248046875
173,2.883,-0.30945931401000004,-0.00798948315,0.26684873721,-0.08349609375,1.1064453125,-0.0498046875
174,2.9,-0.266316105,-0.15712650195,0.27164242710000003,0.02392578125,1.09375,-0.06201171875
175,2.9170000000000003,-0.46818371259,-0.22423816041000003,0.36059200617000003,0.0908203125,1.01904296875,-0.05615234375
176,2.9330000000000003,-0.59175438531,-0.25246766754,0.38456045562,0.013671875,1.02099609375,-0.07080078125
177,2.95,-0.36059200617000003,-0.28495823235,0.14381069670000002,-0.04248046875,1.001953125,-0.037109375
178,2.967,-0.10173275211,-0.19281286002,-0.29880666981000004,-0.00830078125,0.88427734375,0.0283203125
179,2.983,-0.06657902625,0.04900216332,-0.46445528712,0.048828125,0.875,0.068359375
180,3.0,-0.2343581724,0.056991646470000004,-0.38402782341,0.037109375,0.966796875,0.08544921875
181,3.017,-0.39041940993,-0.08309062476000001,-0.28815402561000003,-0.00537109375,0.9990234375,0.0537109375
182,3.033,-0.35792884512,-0.25832662185,-0.14114753565000002,-0.0205078125,0.978515625,0.01708984375
183,3.0500000000000003,-0.15606123753,-0.37497307584,0.13528858134000002,-0.0126953125,0.88720703125,0.0498046875
184,3.067,-0.15925703079,-0.24288028776,0.25779398964,-0.0146484375,0.8486328125,0.0810546875
185,3.083,-0.08362325697,-0.13741911018,0.14434332891,0.03857421875,0.83984375,0.11865234375
186,3.1,-0.23702133345,-0.04900216332,0.17150757162000002,0.0810546875,0.826171875,0.109375
187,3.117,-0.51399008265,0.14966965101000002,0.40000678971000003,0.0537109375,0.865234375,0.08447265625
188,3.133,-0.6530070894600001,0.22264026378000001,0.55819855608,0.01513671875,0.95556640625,0.0107421875
189,3.15,-0.5853627987900001,0.13582121355000001,0.59175438531,0.03759765625,1.013671875,-0.06494140625
190,3.1670000000000003,-0.37603834026000005,0.1171790862,0.4740426669,0.06787109375,0.9765625,-0.08447265625
191,3.1830000000000003,-0.26525084058000004,0.32543828031,0.18322548024000002,0.078125,0.96484375,-0.14501953125
192,3.2,0.5070658639200001,-0.021837920610000002,-0.64501760631,-0.4267578125,1.14013671875,0.0185546875
193,3.217,0.72757559886,-0.036751622490000004,-0.64927866399,0.0283203125,0.755859375,-0.16552734375
194,3.233,0.44474789535000003,0.80161147605,0.06870955509,0.04345703125,0.99365234375,-0.05712890625
195,3.25,-0.07030745172000001,0.33715618893000004,0.31105721064,0.03271484375,1.11669921875,-0.052734375
196,3.267,0.18056231919000001,0.020772656190000002,0.25992451848000003,-0.08544921875,1.05908203125,-0.1123046875
197,3.283,0.479368989,-0.07190534835000001,-0.19867181433,0.0,1.13330078125,-0.15087890625
198,3.3000000000000003,0.30253509528,-0.51239218602,-0.39468046761000003,0.169921875,1.01220703125,-0.01708984375
199,3.317,-0.24074975892000003,-0.81279675246,-0.25459819638000003,0.021484375,0.90478515625,0.06396484375
200,3.333,-0.27696874920000003,-0.61305967371,-0.13795174239000002,-0.03369140625,0.73095703125,-0.03466796875
201,3.35,-0.15712650195,0.21678130947000002,0.0053263221,-0.04736328125,0.88037109375,-0.0625
202,3.367,-0.13369068471,0.28602349677,0.06444849741,-0.0322265625,1.00732421875,-0.03955078125
203,3.383,-0.06870955509,0.52091430138,0.33236249904000004,-0.09912109375,0.927734375,-0.03466796875
204,3.4,-0.01651159851,0.8735168244,0.5544701306100001,-0.0390625,1.0,-0.0859375
205,3.4170000000000003,-0.03568635807,0.7755124977600001,0.4687163448,0.048828125,1.0458984375,-0.0751953125
206,3.4330000000000003,-0.23329290798000002,0.56885120028,0.5981459718300001,-0.01416015625,1.05224609375,-0.06494140625
207,3.45,0.16618124952000002,0.21571604505000003,-0.04474110564,-0.33544921875,1.2001953125,0.01123046875
208,3.467,0.9001484349000001,-0.4367584122,-0.45593317176000003,0.01318359375,1.193359375,-0.08984375
209,3.483,1.1078749968000001,-0.8889631584900001,-0.45646580397000003,0.25048828125,1.125,-0.13525390625
210,3.5,0.6535397216700001,-1.13663713614,0.07243798056,0.20654296875,0.958984375,-0.08447265625
211,3.517,0.40533311181000004,-1.04129597055,0.5965480752000001,-0.06103515625,0.9462890625,-0.0458984375
212,3.533,0.35526568407000003,-0.8649947090400001,0.8117314880400001,-0.04736328125,0.92041015625,0.01318359375
213,3.5500000000000003,0.0426105768,-0.6519418250400001,0.61519020255,0.05224609375,0.88330078125,-0.03125
214,3.567,-0.050600059950000005,-0.17736652593000002,0.08788431465,-0.04296875,0.9326171875,-0.11962890625
215,3.583,0.04101268017,0.13848437460000002,-0.65034392841,0.14013671875,0.97509765625,-0.14892578125
216,3.6,-0.33129723462000005,0.29720877318,-0.31904669379,0.19580078125,0.88623046875,-0.0712890625
217,3.617,-0.45380264292000005,0.44474789535000003,0.015446334090000001,-0.0810546875,1.01806640625,-0.02783203125
218,3.633,-0.45007421745000004,0.34194987882,0.052730588790000005,-0.02978515625,1.09912109375,0.00732421875
219,3.65,-0.6743123778600001,-0.14061490344000002,0.14700648996000001,0.09130859375,0.9765625,0.00048828125
220,3.6670000000000003,-0.8639294446200001,-0.10865697084,-0.09800432664,0.078125,0.90380859375,-0.06591796875
221,3.6830000000000003,-0.97152115104,-0.04048004796,-0.10013485548,0.126953125,0.93798828125,0.01416015625
222,3.7,-1.16752980432,-0.24767397765000002,0.03036003597,0.1630859375,0.876953125,-0.0244140625
223,3.717,-1.0375675450800002,-0.006924218730000001,0.1704423072,0.033203125,0.92626953125,-0.0107421875
224,3.733,-0.75846826704,0.20026971096,0.32064459042000004,-0.0478515625,0.92138671875,0.07373046875
225,3.75,-0.36378779943,0.60134176509,0.27856664583,-0.11083984375,1.14697265625,-0.0341796875
226,3.767,-0.13262542029000002,0.30466562412000003,-0.10599380979,0.10595703125,1.44580078125,-0.0673828125
227,3.783,-0.44794368861,-0.39894152529000004,-0.43516051557,0.24169921875,1.126953125,-0.06640625
228,3.8000000000000003,-0.77284933671,-0.2237055282,-0.21358551621000002,0.0517578125,1.0087890625,0.06298828125
229,3.817,-0.53636063547,-0.15712650195,0.0037284254700000003,-0.13671875,0.72314453125,0.04150390625
230,3.833,0.01225054083,0.83516730528,0.92731267761,-0.01318359375,0.76611328125,-0.03271484375
231,3.85,0.52783852011,1.2980246957700001,1.3630058253900001,0.060546875,1.1435546875,-0.1181640625
232,3.867,0.86020101915,1.0833739151400001,1.12545185973,0.0927734375,1.27197265625,-0.126953125
233,3.883,0.5544701306100001,0.39894152529000004,0.6412891808400001,0.2705078125,1.083984375,-0.06689453125
234,3.9,-0.04101268017,0.12037487946000001,0.21731394168,0.2314453125,0.9208984375,-0.06884765625
235,3.9170000000000003,-0.14381069670000002,0.43409525115,-0.24607608102,0.05322265625,0.8828125,-0.03564453125
236,3.9330000000000003,0.45646580397000003,0.85008100716,0.27909927804,0.0693359375,0.7431640625,-0.10498046875
237,3.95,0.85008100716,1.9110843694800002,0.71585769024,0.20263671875,1.005859375,-0.24951171875
238,3.967,0.81652517793,2.01068659275,0.42823629684000003,0.23779296875,1.29296875,-0.2666015625
239,3.983,-0.94968323043,-0.83676520191,0.061252704150000004,0.177734375,1.49853515625,0.05615234375
240,4.0,-0.26258767953,-1.52812181049,-0.08362325697,0.015625,1.26611328125,-0.166015625
241,4.017,-0.04101268017,-1.4088121954500001,-0.16138755963,0.01318359375,0.77587890625,-0.08642578125
242,4.033,0.05006742774,-0.44261736651000005,-0.22636868925,-0.0244140625,0.8291015625,-0.03759765625
243,4.05,0.13582121355000001,-0.5400890609400001,-0.82717782213,-0.0556640625,0.84912109375,-0.02392578125
244,4.067,-0.0053263221,-0.41438785938,-0.52251219801,0.10693359375,1.00439453125,0.00537109375
245,4.083,-0.18855180234000002,-0.53689326768,-0.65620288272,0.126953125,0.9794921875,-0.0498046875
246,4.1,-0.28389296793,-0.56086171713,-0.56139434934,0.15380859375,1.0498046875,0.00146484375
247,4.117,-0.41278996275,-0.78350198091,-0.53423010663,0.30712890625,0.958984375,-0.02783203125
248,4.133,-0.36059200617000003,-0.8096009592000001,-0.01651159851,0.14697265625,1.12255859375,0.00390625
249,4.15,-0.46818371259,-0.90654002142,0.24447818439000002,0.00390625,1.24462890625,0.0302734375
250,4.167,-0.37390781142,-1.31666682312,-0.06338323299000001,-0.0458984375,1.0400390625,0.0390625
251,4.183,-0.22210763157000002,-1.28737205157,-0.2237055282,0.02490234375,0.85400390625,0.04833984375
252,4.2,-0.16298545626000002,-1.11426658332,-0.39894152529000004,0.02001953125,0.71337890625,0.0703125
253,4.2170000000000005,-0.04953479553,-0.48842373657000004,-0.52517535906,0.02392578125,0.76318359375,0.09619140625
254,4.233,-0.02929477155,-0.38029939794,-0.7872304063800001,0.0771484375,0.97021484375,0.10009765625
255,4.25,0.022903185030000002,-0.6546049860900001,-0.7558051059900001,0.18359375,1.0107421875,0.126953125
256,4.267,0.03888215133,-0.7110640003500001,-0.16724651394,0.02197265625,0.96484375,0.11083984375
257,4.283,0.11504855736000001,-0.37657097247000004,-0.29667614097,0.0166015625,1.00830078125,0.0966796875
258,4.3,-0.00106526442,-0.10120011990000001,-0.09960222327000001,0.123046875,1.12890625,0.0556640625
259,4.317,-0.23702133345,-0.23382554019000001,0.48096688563,-0.01513671875,1.30517578125,0.05078125
260,4.333,-0.21891183831000002,-0.5981459718300001,0.82717782213,-0.26171875,1.34375,0.091796875
261,4.3500000000000005,-0.1118527641,-0.8745820888200001,0.68230186101,-0.14453125,1.0478515625,0.07373046875
262,4.367,-0.28655612898,-0.5187837725400001,0.95074849485,-0.0693359375,1.06982421875,0.10302734375
263,4.383,-0.37603834026000005,-0.5486111763,1.10148341028,0.05810546875,1.2021484375,0.07470703125
264,4.4,-0.35206989081,-0.81652517793,1.05834020127,0.01171875,1.19580078125,0.173828125
265,4.417,-0.31798142937,-0.9890980139700001,0.75953353146,0.23828125,0.91357421875,0.18994140625
266,4.433,-0.39148467435,-0.8841694686,0.38296255899000003,0.16845703125,0.8828125,0.2236328125
267,4.45,-0.30839404959,-0.38669098446,0.22050973494,0.11279296875,0.91357421875,0.1806640625
268,4.4670000000000005,-0.14274543228,0.12623383377,-0.029827403760000003,0.0078125,1.04150390625,0.19970703125
269,4.483,-0.0426105768,0.27696874920000003,-0.24873924207,0.11865234375,0.9482421875,0.21630859375
270,4.5,0.11611382178,0.73769561085,-0.59281964973,0.05810546875,0.88916015625,0.20849609375
271,4.517,0.026631610500000003,0.9342368963400001,-0.8309062476000001,0.17822265625,0.783203125,0.1865234375
272,4.533,0.00106526442,1.00774014132,-0.80374200489,-0.00537109375,0.86376953125,0.2431640625
273,4.55,0.0159789663,0.7936219929,-0.6178533636000001,0.11279296875,0.92138671875,0.15478515625
274,4.567,-0.047936898900000004,0.48948900099000003,-0.46978160922,-0.03271484375,0.96875,0.17578125
275,4.583,0.06551376183,0.12410330493,-0.24181502334000002,-0.0849609375,0.89453125,0.15869140625
276,4.6000000000000005,0.13209278808,0.30200246307,-0.16138755963,0.07666015625,0.63330078125,0.125
277,4.617,0.02343581724,0.48309741447000004,0.15339807648,-0.0146484375,0.76513671875,0.16943359375
278,4.633,0.12144014388,0.46019422944000005,0.10173275211,0.03466796875,0.83642578125,0.10400390625
279,4.65,0.17097493941,0.42983419347,0.47723846016000004,-0.0361328125,1.18212890625,0.09423828125
280,4.667,0.18908443455,-0.09374326896,0.46019422944000005,-0.021484375,1.07177734375,0.10693359375
281,4.683,0.28069717467,0.030892668180000003,0.7542072093600001,0.0439453125,0.8828125,0.1435546875
282,4.7,0.11824435062000001,0.17363810046,0.6210491568600001,0.08154296875,0.83203125,0.2294921875
283,4.7170000000000005,0.26152241511,0.25300029975,0.8218515000300001,0.0869140625,0.94775390625,0.13623046875
284,4.7330000000000005,0.08415588918,0.47084687364000005,0.41225733054,0.03759765625,1.162109375,0.056640625
285,4.75,0.15286544427,0.12090751167000001,-0.10705907421000001,0.2490234375,1.412109375,0.0791015625
286,4.767,-0.08362325697,-0.21784657389,0.048469531110000005,0.1064453125,0.84375,0.166015625
287,4.783,-0.12570120156,0.43143209010000005,-0.15339807648,0.24853515625,1.06787109375,0.0654296875
288,4.8,-0.24873924207,0.6418218130500001,-0.11504855736000001,-0.02490234375,0.83056640625,0.09228515625
289,4.817,-0.15606123753,0.60507019056,-0.06711165846,0.17919921875,1.0595703125,0.03271484375
290,4.833,-0.37017938595000005,0.9656621967300001,-0.08788431465,-0.08203125,0.86767578125,-0.01611328125
291,4.8500000000000005,-0.0319579326,-0.025566346080000003,0.0319579326,0.111328125,1.318359375,0.02587890625
292,4.867,-0.22849921809,0.92464951656,0.061252704150000004,0.06884765625,0.87060546875,-0.0078125
293,4.883,-0.059654807520000006,-0.18322548024000002,0.00266316105,0.1162109375,1.16162109375,0.00732421875
294,4.9,-0.13156015587,0.36698359269,0.04314320901,0.0673828125,0.74658203125,0.02587890625
295,4.917,-0.08468852139000001,0.40426784739000005,0.06231796857000001,-0.02978515625,0.69873046875,0.08984375
296,4.933,0.1704423072,0.57151436133,0.12516856935,-0.14013671875,1.12744140625,-0.046875
297,4.95,0.10013485548,0.6652576302900001,0.11238539631000001,0.14501953125,1.04345703125,-0.04052734375
298,4.9670000000000005,0.13102752366,0.49641321972,0.10918960305,0.09130859375,1.2470703125,-0.0078125
299,4.9830000000000005,0.03994741575,0.5299690489500001,0.07723167045000001,0.14990234375,0.97021484375,0.01806640625
300,5.0,0.07403587719,0.7637945891400001,0.06072007194,0.20263671875,0.76611328125,-0.05224609375
301,5.017,-0.06498112962000001,0.51612061149,0.02929477155,0.11376953125,1.041015625,0.00634765625
302,5.033,0.022903185030000002,0.054861117630000004,0.006391586520000001,0.11962890625,1.2001953125,-0.03515625
303,5.05,0.08681905023,-0.7137271614,-0.04101268017,0.11328125,0.95068359375,-0.07177734375
304,5.067,0.16724651394,-0.8309062476000001,-0.07297061277,0.16259765625,1.087890625,-0.1005859375
305,5.083,0.007456850940000001,-1.08497181177,-0.11611382178,0.2568359375,0.7763671875,0.10791015625
306,5.1000000000000005,-0.023968449450000002,-0.9001484349000001,-0.08468852139000001,0.09716796875,0.65966796875,0.06494140625
307,5.117,-0.021837920610000002,-0.42610576800000005,-0.02822950713,0.00927734375,0.82470703125,0.1474609375
308,5.133,0.07563377382,-0.023968449450000002,0.034621093650000004,0.03271484375,0.74560546875,0.02978515625
309,5.15,-0.01651159851,0.36911412153,0.044208473430000006,0.05419921875,1.02392578125,0.02880859375
310,5.167,0.09906959106,0.36645096048000003,0.05113269216000001,0.09716796875,1.06396484375,0.0322265625
311,5.183,0.01171790862,0.5747101545900001,0.043675841220000004,0.12060546875,0.837890625,0.0810546875
312,5.2,0.00266316105,0.31158984285,0.03302319702,0.06201171875,0.92529296875,0.00830078125
313,5.2170000000000005,0.00479368989,0.21678130947000002,0.01171790862,0.09375,0.78857421875,0.06640625
314,5.2330000000000005,0.20932445853,-0.16351808847000002,-0.007456850940000001,0.00146484375,1.18408203125,-0.056640625
315,5.25,0.13848437460000002,-0.18216021582,-0.01651159851,0.111328125,0.99853515625,-0.0712890625
316,5.267,0.07190534835000001,-0.47777109237000004,-0.04900216332,0.10205078125,1.34521484375,0.09375
317,5.283,0.15180017985000002,-0.8852347330200001,-0.0213052884,0.04638671875,0.65625,0.06982421875
318,5.3,-0.039414783540000005,0.41438785938,0.03888215133,0.07421875,0.76611328125,0.05712890625
319,5.317,-0.032490564810000004,-0.15126754764,0.05166532437,0.06640625,1.0849609375,0.09619140625
320,5.333,0.013315805250000002,0.007456850940000001,0.05379585321,0.04052734375,1.22705078125,-0.16015625
321,5.3500000000000005,-0.0319579326,0.35526568407000003,0.023968449450000002,0.15185546875,1.52587890625,0.05615234375
322,5.367,-0.00958737978,0.04953479553,0.00213052884,0.1357421875,0.81689453125,0.01171875
323,5.383,-0.03994741575,0.47723846016000004,0.02503371387,0.087890625,1.10546875,0.0751953125
324,5.4,-0.0319579326,0.37710360468000004,0.017576862930000003,0.1240234375,1.10400390625,0.0546875
325,5.417,-0.029827403760000003,0.1331580525,-0.013848437460000002,0.1171875,0.69921875,0.09228515625
326,5.433,0.026631610500000003,-0.40213731855,-0.01651159851,0.09912109375,1.40185546875,-0.03271484375
327,5.45,-0.006924218730000001,-0.20346550422,-0.03408846144,0.12109375,0.9111328125,0.02294921875
328,5.4670000000000005,-0.01917475956,-0.33928671777,-0.006924218730000001,0.08935546875,0.99169921875,-0.05810546875
329,5.4830000000000005,-0.027696874920000003,0.2183792061,-0.007456850940000001,0.017578125,1.14453125,0.08984375
330,5.5,-0.037284254700000005,0.15606123753,0.039414783540000005,0.10400390625,0.73291015625,-0.03173828125
331,5.517,-0.07084008393,0.4580637006,0.03888215133,0.08642578125,1.3544921875,0.04052734375
332,5.533,-0.014381069670000001,-0.21997710273,0.012783173040000002,0.04443359375,1.1728515625,-0.07421875
333,5.55,-0.032490564810000004,0.40320258297,-0.006391586520000001,0.05908203125,1.12451171875,0.03466796875
334,5.567,0.12516856935,-0.52783852011,0.00479368989,-0.06005859375,1.18212890625,-0.0791015625
335,5.583,-0.00479368989,0.06870955509,-0.00852211536,0.06396484375,0.58056640625,0.07763671875
336,5.6000000000000005,0.006924218730000001,-0.6072007194000001,-0.014913701880000001,0.09814453125,0.90576171875,0.02294921875
337,5.617,-0.02503371387,-0.18801917013000002,-0.01704423072,0.033203125,0.775390625,0.0556640625
338,5.633,0.02929477155,-0.33236249904000004,-0.007456850940000001,0.041015625,1.134765625,0.04150390625
339,5.65,0.035153725860000005,-0.31265510727,0.00479368989,0.1171875,0.8974609375,0.04296875
340,5.667,-0.0037284254700000003,-0.14807175438,0.015446334090000001,0.0556640625,1.22705078125,0.05419921875
341,5.683,-0.00852211536,-0.057524278680000006,0.00798948315,0.0703125,0.92578125,0.03955078125
342,5.7,0.08575378581000001,-0.372842547,-0.00213052884,0.0234375,1.0625,0.056640625
343,5.7170000000000005,0.08255799255,-0.20026971096,-0.027696874920000003,0.1142578125,0.77392578125,0.109375
344,5.7330000000000005,0.05592638205,-0.48629320773,-0.018642127350000003,0.11328125,0.86572265625,0.1025390625
345,5.75,0.00053263221,-0.07936219929,-0.00479368989,0.056640625,0.998046875,0.0341796875
346,5.767,-0.02503371387,0.30892668180000005,0.0031957932600000004,0.0390625,1.0244140625,0.11376953125
347,5.783,-0.01225054083,0.0639158652,-0.0053263221,0.05908203125,1.02880859375,0.06884765625
348,5.8,-0.014381069670000001,0.47617319574000005,0.0106526442,0.0966796875,1.06103515625,0.05712890625
349,5.817,-0.00958737978,0.33182986683000004,0.0053263221,0.0546875,1.20263671875,0.05908203125
350,5.833,-0.0106526442,0.19813918212,-0.00585895431,0.029296875,0.8779296875,0.06494140625
351,5.8500000000000005,-0.00958737978,0.03621899028,-0.007456850940000001,0.05322265625,1.19580078125,0.03369140625
352,5.867,-0.006924218730000001,-0.18002968698000002,-0.012783173040000002,0.05322265625,0.92578125,0.05712890625
353,5.883,-0.00852211536,-0.08149272813000001,-0.013848437460000002,0.0673828125,1.16455078125,0.0771484375
354,5.9,0.04527373785,-0.5070658639200001,-0.0037284254700000003,-0.00048828125,0.849609375,0.01904296875
355,5.917,-0.0037284254700000003,-0.028762139340000003,-0.00798948315,0.02392578125,1.142578125,0.03857421875
356,5.933,0.08788431465,-0.39681099645,0.006391586520000001,0.0712890625,1.1611328125,0.0791015625
357,5.95,0.01225054083,-0.18748653792,-0.01012001199,0.0576171875,1.03271484375,0.03662109375
358,5.9670000000000005,0.00266316105,-0.34940672976000003,0.00852211536,0.04052734375,1.12109375,0.0947265625
359,5.9830000000000005,0.0426105768,-0.34408040766000003,0.01810949514,0.02197265625,1.10107421875,0.0537109375
360,6.0,0.01810949514,0.00053263221,0.018642127350000003,0.08203125,1.0517578125,0.076171875
361,6.017,0.00213052884,-0.10812433863000001,0.014381069670000001,0.05224609375,1.11083984375,0.080078125
362,6.033,0.00958737978,-0.03142530039,0.018642127350000003,0.06640625,0.89208984375,0.08544921875
363,6.05,-0.006924218730000001,0.12942962703000002,0.02716424271,0.0390625,1.0166015625,0.10888671875
364,6.067,-0.00479368989,0.04101268017,0.017576862930000003,0.0478515625,0.88134765625,0.08251953125
365,6.083,-0.00426105768,-0.08948221128,0.0213052884,0.0703125,1.0029296875,0.08251953125
366,6.1000000000000005,-0.00798948315,0.08149272813000001,0.01810949514,0.078125,1.02099609375,0.06103515625
367,6.117,-0.053263221000000006,0.08042746371000001,0.022903185030000002,0.10595703125,1.04248046875,0.07421875
368,6.133,-0.013315805250000002,0.17310546825,0.022903185030000002,0.04833984375,1.1767578125,0.0361328125
369,6.15,-0.061785336360000005,0.10386328095000001,0.007456850940000001,0.05859375,0.97216796875,0.05810546875
370,6.167,-0.0037284254700000003,0.02450108166,0.007456850940000001,0.0888671875,1.1318359375,0.03125
371,6.183,-0.013315805250000002,0.06657902625,0.006924218730000001,0.07568359375,1.09765625,0.0673828125
372,6.2,-0.01225054083,0.05113269216000001,0.01118527641,0.078125,1.064453125,0.04931640625
373,6.2170000000000005,-0.00106526442,-0.33928671777,-0.00213052884,0.03369140625,0.9013671875,0.0927734375
374,6.2330000000000005,-0.0053263221,-0.11558118957,-0.00426105768,0.04736328125,0.97021484375,0.095703125
375,6.25,0.01651159851,-0.40373521518000005,0.00479368989,0.04443359375,0.84716796875,0.1025390625
376,6.267,0.014913701880000001,-0.08202536034,0.0106526442,0.06591796875,1.07568359375,0.08642578125
377,6.283,0.0015978966300000002,-0.26791400163,0.014381069670000001,0.04150390625,0.841796875,0.1337890625
378,6.3,0.053263221000000006,0.046339002270000006,0.01704423072,0.111328125,0.96484375,0.107421875
379,6.317,-0.0053263221,0.030892668180000003,0.00798948315,0.06005859375,0.9140625,0.119140625
380,6.333,-0.00479368989,0.16458335289,0.006924218730000001,0.0654296875,1.02490234375,0.08349609375
381,6.3500000000000005,-0.00213052884,-0.11771171841000001,0.015446334090000001,0.0234375,0.99658203125,0.1015625
382,6.367,0.03408846144,0.04314320901,0.02503371387,0.03125,1.091796875,0.05908203125
383,6.383,0.0213052884,-0.08309062476000001,0.013315805250000002,0.05322265625,0.9443359375,0.1015625
384,6.4,0.01651159851,-0.1118527641,0.017576862930000003,0.0634765625,1.1220703125,0.060546875
385,6.417,-0.00585895431,0.018642127350000003,0.027696874920000003,0.0625,1.0390625,0.09912109375
386,6.433,-0.006391586520000001,-0.01651159851,0.029827403760000003,0.03955078125,0.9833984375,0.05615234375
387,6.45,-0.01225054083,0.11877698283,0.025566346080000003,0.037109375,0.93701171875,0.0751953125
388,6.4670000000000005,-0.00213052884,-0.01012001199,0.022903185030000002,0.072265625,1.1826171875,0.06640625
389,6.4830000000000005,-0.00852211536,0.00266316105,0.01012001199,0.06982421875,0.82763671875,0.10498046875
390,6.5,0.00106526442,-0.27324032373,0.017576862930000003,0.08447265625,1.0732421875,0.07470703125
391,6.517,-0.007456850940000001,0.09374326896,0.01171790862,0.01220703125,0.87353515625,0.1240234375
392,6.533,0.00852211536,-0.19441075665000002,0.013848437460000002,0.0712890625,0.87841796875,0.0869140625
393,6.55,0.025566346080000003,-0.018642127350000003,0.015446334090000001,0.0244140625,1.03515625,0.11279296875
394,6.567,-0.006924218730000001,0.0585895431,0.023968449450000002,0.0537109375,0.90087890625,0.08203125
395,6.583,-0.04048004796,0.29401297992000003,0.032490564810000004,0.04150390625,1.08203125,0.107421875
396,6.6000000000000005,-0.14594122554,0.37870150131,0.03142530039,0.05615234375,0.88037109375,0.0537109375
397,6.617,-0.07190534835000001,0.44368263093000004,0.04207794459,0.00537109375,0.93994140625,0.0673828125
398,6.633,-0.06924218730000001,0.42344260695,0.03036003597,0.05078125,0.75439453125,0.1015625
399,6.65,-0.00213052884,0.29134981887,0.035153725860000005,0.0810546875,1.03271484375,0.03466796875
400,6.667,-0.00479368989,0.22210763157000002,0.014381069670000001,0.0673828125,1.0078125,0.06591796875
401,6.683,0.021837920610000002,-0.17896442256,0.012783173040000002,0.044921875,1.05517578125,0.02734375
402,6.7,0.020772656190000002,0.05805691089,-0.00053263221,0.0146484375,0.921875,0.08984375
403,6.7170000000000005,-0.00053263221,0.029827403760000003,0.014913701880000001,0.0771484375,1.08935546875,0.04736328125
404,6.7330000000000005,-0.15233281206000002,0.19920444654000002,0.0213052884,0.0458984375,0.87841796875,0.0888671875
405,6.75,-0.06285060078,0.17736652593000002,0.01704423072,0.05419921875,1.00146484375,0.0537109375
406,6.767,-0.07829693487,0.40746364065,0.012783173040000002,0.06201171875,0.9873046875,0.05810546875
407,6.783,-0.030892668180000003,0.29241508329000004,0.007456850940000001,0.09228515625,1.123046875,-0.00048828125
408,6.8,-0.045806370060000004,0.34461303987,0.00213052884,0.0087890625,0.94677734375,0.044921875
409,6.817,-0.07350324498000001,0.012783173040000002,0.00852211536,0.09130859375,1.05810546875,0.01220703125
410,6.833,-0.03888215133,0.08468852139000001,0.021837920610000002,0.00341796875,1.01904296875,0.0458984375
411,6.8500000000000005,0.046339002270000006,-0.24820660986,0.00266316105,0.11181640625,0.9912109375,0.0498046875
412,6.867,0.11291802852,-0.53476273884,-0.012783173040000002,-0.0078125,1.00390625,0.04150390625
413,6.883,0.0585895431,-0.32916670578,0.00958737978,0.09814453125,0.99462890625,0.03125
414,6.9,0.026631610500000003,-0.5416869575700001,0.03355582923,0.0146484375,1.07861328125,0.07568359375
415,6.917,-0.027696874920000003,-0.28442560014,0.02450108166,0.06884765625,0.79345703125,0.05908203125
416,6.933,-0.037284254700000005,-0.00585895431,0.041545312380000005,0.0517578125,1.07177734375,0.06103515625
417,6.95,-0.04474110564,-0.006924218730000001,0.018642127350000003,0.0185546875,0.873046875,0.08203125
418,6.9670000000000005,-0.00053263221,-0.07243798056,0.022903185030000002,0.06396484375,1.08203125,0.02294921875
419,6.9830000000000005,-0.00426105768,-0.10226538432000001,0.006391586520000001,0.02783203125,0.8525390625,0.0849609375
420,7.0,0.0426105768,-0.23595606903000002,0.021837920610000002,0.0732421875,1.0595703125,0.013671875
421,7.017,0.022903185030000002,-0.27004453047000004,0.00053263221,0.0205078125,1.1005859375,0.1083984375
422,7.033,0.09587379780000001,-0.47564056353,-0.006391586520000001,0.08349609375,0.900390625,0.05517578125
423,7.05,0.02822950713,-0.52144693359,0.0015978966300000002,0.02880859375,1.14697265625,0.0791015625
424,7.067,0.037284254700000005,-0.45220474629,-0.014913701880000001,0.11376953125,0.96044921875,0.11376953125
425,7.083,0.06498112962000001,-0.58323226995,-0.00585895431,0.00537109375,1.0341796875,0.09716796875
426,7.1000000000000005,0.03568635807,-0.41598575601000004,-0.006391586520000001,0.11181640625,1.064453125,0.1455078125
427,7.117,0.03408846144,-0.38349519120000003,0.0037284254700000003,0.02197265625,0.96240234375,0.0888671875
428,7.133,-0.013315805250000002,-0.30679615296,0.00053263221,0.07470703125,0.9755859375,0.13671875
429,7.15,0.021837920610000002,-0.27217505931,0.00905474757,0.08984375,0.8603515625,0.125
430,7.167,-0.0106526442,-0.08149272813000001,-0.00479368989,0.04443359375,1.04638671875,0.1376953125
431,7.183,-0.00479368989,-0.012783173040000002,0.0037284254700000003,0.03515625,0.9345703125,0.1396484375
432,7.2,-0.0031957932600000004,0.39041940993,0.02929477155,0.03662109375,1.0595703125,0.15380859375
433,7.2170000000000005,-0.01651159851,0.39894152529000004,0.03568635807,0.05029296875,0.9091796875,0.1376953125
434,7.2330000000000005,-0.00958737978,0.37124465037000004,0.034621093650000004,0.03515625,1.09033203125,0.11865234375
435,7.25,-0.012783173040000002,0.21891183831000002,0.02343581724,0.05810546875,0.86865234375,0.09912109375
436,7.267,-0.00479368989,0.0053263221,0.015446334090000001,0.0576171875,1.0830078125,0.07080078125
437,7.283,-0.0037284254700000003,0.059654807520000006,-0.00426105768,0.04150390625,0.994140625,0.14306640625
438,7.3,0.006391586520000001,-0.15073491543,0.00426105768,0.107421875,0.9365234375,0.10009765625
439,7.317,0.01012001199,-0.17523599709,-0.006391586520000001,0.02294921875,1.02978515625,0.1484375
440,7.333,-0.00266316105,-0.09480853338,0.00266316105,0.06787109375,0.865234375,0.06982421875
441,7.3500000000000005,-0.006924218730000001,-0.018642127350000003,0.00798948315,0.0205078125,1.05517578125,0.12158203125
442,7.367,-0.00585895431,-0.10013485548,0.007456850940000001,0.01025390625,1.005859375,0.10791015625
443,7.383,-0.02237055282,0.06604639404,0.018642127350000003,0.07275390625,0.96337890625,0.11572265625
444,7.4,-0.03781688691,0.00426105768,0.012783173040000002,0.03759765625,1.00146484375,0.16259765625
445,7.417,-0.00852211536,0.06657902625,0.02450108166,0.0615234375,0.9091796875,0.107421875
446,7.433,-0.08309062476000001,0.17257283604,0.01704423072,0.04833984375,1.02099609375,0.115234375
447,7.45,-0.012783173040000002,0.03781688691,0.014381069670000001,0.10693359375,0.884765625,0.0859375
448,7.4670000000000005,-0.017576862930000003,0.19228022781,-0.007456850940000001,0.04150390625,1.07861328125,0.12060546875
449,7.4830000000000005,-0.01012001199,-0.17417073267000002,-0.01012001199,0.02490234375,0.845703125,0.10302734375
450,7.5,-0.00479368989,0.05379585321,0.01225054083,0.03125,1.26318359375,0.10791015625
451,7.517,0.0037284254700000003,-0.35792884512,0.015446334090000001,0.01123046875,0.9375,0.1142578125
452,7.533,0.00852211536,-0.13635384576,0.027696874920000003,0.0498046875,1.1337890625,0.09521484375
453,7.55,-0.0037284254700000003,-0.22743395367000002,0.020772656190000002,0.06884765625,0.90869140625,0.1533203125
454,7.567,0.0,-0.10492854537,0.015446334090000001,0.08642578125,0.96533203125,0.05078125
455,7.583,-0.013315805250000002,0.00905474757,0.00106526442,0.03466796875,1.06689453125,0.14599609375
456,7.6000000000000005,-0.00479368989,-0.16564861731000002,0.01225054083,0.0634765625,0.947265625,0.0830078125
457,7.617,-0.00852211536,0.10173275211,0.013315805250000002,0.04296875,1.08203125,0.1494140625
458,7.633,-0.01225054083,0.06338323299000001,0.012783173040000002,0.0703125,0.896484375,0.1083984375
459,7.65,-0.06604639404,0.25513082859,0.00958737978,0.07470703125,1.009765625,0.13623046875
460,7.667,-0.12303804051,0.15233281206000002,0.0031957932600000004,0.072265625,0.8974609375,0.091796875
461,7.683,-0.00958737978,0.19121496339000002,0.02237055282,0.00439453125,1.07275390625,0.1142578125
462,7.7,-0.0319579326,0.20293287201000001,0.023968449450000002,0.033203125,0.90087890625,0.11572265625
463,7.7170000000000005,-0.00852211536,0.02822950713,0.041545312380000005,0.0712890625,1.02978515625,0.05224609375
464,7.7330000000000005,-0.08628641802,0.17523599709,0.022903185030000002,0.00048828125,0.927734375,0.10009765625
465,7.75,-0.039414783540000005,0.04474110564,0.028762139340000003,0.15380859375,0.89990234375,0.0556640625
466,7.767,-0.10279801653000001,0.15552860532,0.015446334090000001,0.048828125,1.03271484375,0.12451171875
467,7.783,-0.09161274012000001,0.12516856935,0.0053263221,0.1435546875,1.0146484375,0.04443359375
468,7.8,-0.022903185030000002,-0.08202536034,0.006924218730000001,-0.01904296875,1.08984375,0.1044921875
469,7.817,-0.04687163448,-0.034621093650000004,0.0159789663,0.046875,0.97509765625,0.02099609375
470,7.833,0.036751622490000004,-0.45167211408,0.02343581724,0.0185546875,0.98779296875,0.05419921875
471,7.8500000000000005,0.027696874920000003,-0.26312031174,0.0106526442,-0.04150390625,1.16357421875,0.0625
472,7.867,0.07616640603000001,-0.50227217403,0.025566346080000003,0.08642578125,0.837890625,0.06494140625
473,7.883,0.04900216332,0.029827403760000003,0.03888215133,0.03515625,1.1591796875,0.14501953125
474,7.9,-0.02929477155,0.012783173040000002,0.0031957932600000004,0.09326171875,0.7666015625,0.0380859375
475,7.917,0.013315805250000002,0.27324032373,0.07030745172000001,0.087890625,1.24853515625,0.162109375
476,7.933,-0.04740426669,0.05379585321,-0.014381069670000001,0.13671875,0.6396484375,0.103515625
477,7.95,0.056991646470000004,0.08788431465,0.02929477155,0.0380859375,1.14990234375,0.08349609375
478,7.9670000000000005,-0.03568635807,0.10759170642,-0.006391586520000001,0.04638671875,0.9140625,0.05859375
479,7.9830000000000005,0.11132013189000001,-0.23808659787000003,0.0031957932600000004,0.08984375,1.0830078125,0.11767578125
480,8.0,0.12676646598000002,0.23808659787000003,0.045806370060000004,0.01123046875,1.033203125,0.06298828125
481,8.017,0.07297061277,-0.17363810046,-0.012783173040000002,0.11181640625,0.78515625,0.07275390625
482,8.033,0.03302319702,0.41012680170000004,0.08309062476000001,-0.00390625,1.14013671875,0.08349609375
483,8.05,-0.10173275211,0.07456850940000001,0.037284254700000005,0.1201171875,0.80224609375,0.01806640625
484,8.067,-0.07350324498000001,0.5976133396200001,0.08841694686000001,0.08154296875,1.2041015625,0.01708984375
485,8.083,-0.22849921809,0.14913701880000002,-0.013848437460000002,0.06884765625,0.83642578125,0.0341796875
486,8.1,-0.16192019184,0.31531826832000004,0.02450108166,0.0263671875,1.09912109375,0.03466796875
487,8.117,-0.17150757162000002,-0.14434332891,-0.056991646470000004,0.0966796875,0.84619140625,0.04296875
488,8.133000000000001,-0.03355582923,-0.21624867726000002,0.020772656190000002,0.04296875,1.14892578125,-0.01318359375
489,8.15,-0.11930961504000001,-0.30253509528,-0.05645901426,0.05126953125,0.8046875,0.02587890625
490,8.167,0.06231796857000001,-0.46765108038000003,-0.013848437460000002,0.04736328125,1.2802734375,-0.00048828125
491,8.183,-0.00479368989,-0.16138755963,0.007456850940000001,-0.04345703125,0.82666015625,0.1474609375
492,8.2,0.09108010791,-0.37124465037000004,-0.00479368989,0.04052734375,0.97119140625,0.05029296875
493,8.217,0.09214537233,0.027696874920000003,0.09800432664,-0.01123046875,1.01025390625,0.07177734375
494,8.233,0.06924218730000001,0.10492854537,0.035153725860000005,0.15234375,0.76513671875,0.1083984375
495,8.25,0.14061490344000002,-0.4420847343,-0.030892668180000003,0.078125,1.14306640625,0.0634765625
496,8.267,-0.039414783540000005,0.52783852011,0.03355582923,-0.01123046875,0.9296875,0.068359375
497,8.283,0.04900216332,-0.35739621291,0.03036003597,0.08740234375,0.96923828125,0.00537109375
498,8.3,0.057524278680000006,0.60240702951,0.07616640603000001,-0.0166015625,1.140625,0.1005859375
499,8.317,-0.0037284254700000003,0.01012001199,0.03568635807,0.01318359375,0.94091796875,0.0146484375
500,8.333,0.03302319702,0.42184471032000004,0.06924218730000001,0.0478515625,1.0078125,0.12158203125
501,8.35,0.00958737978,0.29454561213,0.07243798056,0.05810546875,0.99462890625,0.0390625
502,8.367,-0.0106526442,0.39521309982,0.06657902625,0.06640625,0.72265625,0.05126953125
503,8.383000000000001,-0.01651159851,0.2556634608,0.044208473430000006,0.111328125,1.16796875,-0.01025390625
504,8.4,-0.022903185030000002,-0.013848437460000002,0.01810949514,0.06787109375,0.77978515625,0.04541015625
505,8.417,-0.014381069670000001,-0.044208473430000006,0.02503371387,0.08984375,1.1435546875,-0.02099609375
506,8.433,-0.04900216332,-0.01810949514,0.021837920610000002,0.11376953125,0.82470703125,0.0048828125
507,8.45,-0.05805691089,0.01171790862,0.01225054083,0.083984375,1.16064453125,0.01513671875
508,8.467,-0.11291802852,0.13848437460000002,0.00479368989,0.0771484375,0.78759765625,0.00830078125
509,8.483,-0.059654807520000006,0.017576862930000003,0.019707391770000002,0.08349609375,1.193359375,0.00830078125
510,8.5,-0.08362325697,0.10492854537,0.01810949514,-0.001953125,0.7880859375,0.0595703125
511,8.517,0.0,-0.45859633281,0.03355582923,0.0703125,1.17236328125,-0.03662109375
512,8.533,-0.014381069670000001,0.16884441057000002,0.03142530039,0.07568359375,0.8251953125,0.103515625
513,8.55,0.0106526442,-0.30200246307,0.01651159851,0.12158203125,1.103515625,-0.01953125
514,8.567,-0.01704423072,-0.08415588918,0.007456850940000001,0.0859375,0.95263671875,0.0625
515,8.583,0.02716424271,-0.13741911018,-0.00266316105,0.0654296875,1.09619140625,0.02880859375
516,8.6,0.01118527641,-0.20346550422,0.00852211536,0.01806640625,0.8017578125,0.02783203125
517,8.617,-0.017576862930000003,0.13528858134000002,0.01704423072,-0.01123046875,1.06787109375,0.009765625
518,8.633000000000001,-0.01225054083,-0.05113269216000001,0.023968449450000002,0.04150390625,0.92333984375,0.0390625
519,8.65,-0.01810949514,0.12836436261,0.02609897829,0.0751953125,1.09326171875,0.080078125
520,8.667,-0.01917475956,0.025566346080000003,0.03408846144,0.052734375,0.7724609375,0.02880859375
521,8.683,-0.02237055282,0.49002163320000003,0.03568635807,0.01513671875,1.13525390625,0.005859375
522,8.700000000000001,-0.02024002398,-0.013315805250000002,0.03888215133,0.04541015625,0.79248046875,-0.04296875
523,8.717,-0.01651159851,0.2343581724,0.037284254700000005,0.06494140625,1.2255859375,0.0224609375
524,8.733,-0.0053263221,-0.29507824434,0.025566346080000003,0.072265625,0.88134765625,-0.0244140625
525,8.75,0.01225054083,-0.27324032373,0.030892668180000003,0.1005859375,1.20751953125,-0.03515625
526,8.767,0.02822950713,-0.39681099645,0.0159789663,0.01904296875,1.03662109375,0.02880859375
527,8.783,0.014913701880000001,-0.50493533508,0.02024002398,0.10986328125,0.9423828125,-0.02685546875
528,8.8,-0.01917475956,-0.31904669379,0.0,0.05419921875,1.1181640625,0.0849609375
529,8.817,-0.013315805250000002,-0.5757754190100001,0.014913701880000001,0.09326171875,0.8046875,0.03369140625
530,8.833,-0.03834951912,-0.10865697084,0.026631610500000003,0.02490234375,1.048828125,0.07958984375
531,8.85,-0.08948221128,-0.04527373785,0.02024002398,0.10400390625,0.87158203125,0.048828125
532,8.867,-0.09001484349000001,0.10599380979,0.026631610500000003,0.1015625,1.10546875,0.017578125
533,8.883000000000001,-0.14540859333,0.28708876119000004,0.00958737978,0.07568359375,1.0078125,0.0478515625
534,8.9,-0.06870955509,0.14008227123,0.014381069670000001,0.1337890625,1.0595703125,0.03173828125
535,8.917,-0.07616640603000001,0.3568635807,0.00266316105,-0.00341796875,0.939453125,0.05517578125
536,8.933,-0.06604639404,0.0319579326,0.01118527641,0.10546875,0.9794921875,-0.0302734375
537,8.950000000000001,-0.03408846144,0.25353293196000004,0.03568635807,0.00048828125,1.16064453125,0.04833984375
538,8.967,-0.05432848542,-0.18695390571,0.00053263221,0.11669921875,0.8896484375,0.00146484375
539,8.983,-0.00479368989,-0.055393749840000006,0.036751622490000004,0.05322265625,1.18359375,-0.00048828125
540,9.0,-0.05166532437,0.18162758361,0.006391586520000001,0.01904296875,0.8037109375,0.01953125
541,9.017,0.02450108166,-0.38509308783,0.02024002398,0.0673828125,1.02880859375,0.0009765625
542,9.033,-0.0213052884,0.25140240312,0.012783173040000002,0.04296875,1.037109375,0.04345703125
543,9.05,0.03621899028,-0.47670582795000005,0.00958737978,0.07861328125,0.869140625,0.0380859375
544,9.067,0.06072007194,-0.052730588790000005,0.022903185030000002,0.001953125,1.11181640625,0.0380859375
545,9.083,0.03302319702,-0.20399813643,0.014381069670000001,0.09326171875,0.8271484375,0.05126953125
546,9.1,0.043675841220000004,-0.05113269216000001,0.03142530039,0.0078125,1.15673828125,0.02587890625
547,9.117,-0.014381069670000001,-0.00106526442,0.02929477155,0.03271484375,0.75048828125,0.1123046875
548,9.133000000000001,0.054861117630000004,-0.021837920610000002,0.052730588790000005,0.09228515625,1.15771484375,0.0576171875
549,9.15,-0.02609897829,0.27270769152,0.026631610500000003,0.05419921875,0.73486328125,0.0927734375
550,9.167,0.006391586520000001,0.035153725860000005,0.036751622490000004,0.10791015625,1.12158203125,0.00732421875
551,9.183,-0.01225054083,0.16032229521000002,0.019707391770000002,0.0283203125,0.951171875,0.03955078125
552,9.200000000000001,0.00266316105,-0.0639158652,0.0213052884,0.13720703125,0.96875,-0.0009765625
553,9.217,0.013848437460000002,-0.20666129748,0.012783173040000002,0.03955078125,1.2099609375,0.03515625
554,9.233,-0.01810949514,-0.27856664583,0.00053263221,0.07177734375,0.87646484375,0.00146484375
555,9.25,-0.017576862930000003,-0.26312031174,0.015446334090000001,0.03564453125,1.31201171875,0.03515625
556,9.267,-0.02716424271,-0.22264026378000001,0.01810949514,0.044921875,0.849609375,0.04296875
557,9.283,0.00266316105,-0.26844663384,0.03408846144,0.06298828125,1.33837890625,0.02099609375
558,9.3,-0.023968449450000002,-0.18216021582,0.02024002398,0.03955078125,0.87841796875,0.05859375
559,9.317,0.04953479553,-0.29028455445,0.03036003597,0.1025390625,1.17822265625,0.025390625
560,9.333,0.02822950713,-0.017576862930000003,0.01171790862,0.03759765625,0.89013671875,0.09130859375
561,9.35,0.04900216332,-0.13528858134000002,0.013315805250000002,0.15673828125,0.931640625,0.0419921875
562,9.367,0.02929477155,0.24021712671,0.014913701880000001,0.01513671875,1.0068359375,0.1015625
563,9.383000000000001,-0.025566346080000003,0.02237055282,0.01704423072,0.11376953125,0.84814453125,0.04638671875
564,9.4,-0.11930961504000001,0.7105313681400001,0.04314320901,0.00732421875,1.00146484375,0.09765625
565,9.417,-0.18375811245,0.5432848542000001,0.025566346080000003,0.11474609375,0.880859375,0.03369140625
566,9.433,-0.11771171841000001,0.73609771422,0.04048004796,-0.0556640625,1.03173828125,0.06201171875
567,9.450000000000001,-0.022903185030000002,0.66951868797,0.03781688691,0.06396484375,0.9189453125,0.001953125
568,9.467,0.01810949514,0.73876087527,0.04687163448,-0.00634765625,1.052734375,-0.0693359375
569,9.483,-0.07030745172000001,0.57257962575,0.043675841220000004,0.1240234375,0.990234375,0.0498046875
570,9.5,0.09427590117000001,0.30732878517,0.047936898900000004,0.03955078125,1.01171875,-0.1298828125
571,9.517,-0.17683389372000002,0.46498791933000005,0.0319579326,0.109375,1.01025390625,0.0205078125
572,9.533,0.23009711472000002,-0.25885925406000004,0.037284254700000005,0.0009765625,1.2587890625,-0.103515625
573,9.55,0.20293287201000001,-0.21571604505000003,0.00426105768,-0.01318359375,0.88818359375,-0.01171875
574,9.567,0.35792884512,-0.5219795658,0.00479368989,0.07421875,1.08447265625,0.01806640625
575,9.583,0.33609092451,-0.6647249980800001,0.006924218730000001,-0.02490234375,0.95068359375,0.064453125
576,9.6,0.26365294395,-0.66206183703,-0.013315805250000002,0.11328125,0.9150390625,0.0849609375
577,9.617,0.025566346080000003,-0.49215216204,-0.00106526442,0.06787109375,0.99267578125,0.01806640625
578,9.633000000000001,-0.14061490344000002,-0.22423816041000003,-0.00106526442,0.0498046875,0.89501953125,0.0693359375
579,9.65,0.07723167045000001,-0.16884441057000002,0.027696874920000003,0.01416015625,1.0234375,0.05224609375
580,9.667,0.07723167045000001,0.25779398964,0.026631610500000003,0.052734375,0.93359375,0.07861328125
581,9.683,0.048469531110000005,0.18269284803000002,0.07190534835000001,0.06689453125,0.77001953125,0.0703125
582,9.700000000000001,-0.07243798056,0.9635316678900001,0.06924218730000001,0.0126953125,1.068359375,0.07275390625
583,9.717,0.01118527641,0.3515372586,0.04474110564,0.0673828125,0.99951171875,0.0615234375
584,9.733,0.15393070869,0.03994741575,0.06764429067000001,-0.0380859375,1.34814453125,-0.01708984375
585,9.75,0.14008227123,-0.0106526442,0.01118527641,0.0537109375,1.10693359375,0.02880859375
586,9.767,0.11132013189000001,-0.42184471032000004,-0.006391586520000001,0.1875,0.94580078125,0.033203125
587,9.783,-0.028762139340000003,-0.05592638205,-0.02929477155,-0.0400390625,0.91455078125,0.09130859375
588,9.8,0.15659386974,-0.74621772621,-0.00798948315,0.02099609375,1.00927734375,0.0185546875
589,9.817,0.23755396566,-0.83463467307,0.021837920610000002,0.00439453125,1.34033203125,0.0576171875
590,9.833,0.14860438659,-0.80320937268,0.028762139340000003,0.06640625,0.90966796875,0.0380859375
591,9.85,0.20612866527,-0.5294364167400001,0.0639158652,0.02783203125,1.03759765625,0.0380859375
592,9.867,0.05113269216000001,0.34194987882,0.0319579326,0.20703125,0.685546875,0.10107421875
593,9.883000000000001,-0.15339807648,0.7653924857700001,-0.017576862930000003,0.0654296875,0.9794921875,0.08203125
594,9.9,-0.22956448251,0.84795047832,-0.15393070869,0.07275390625,0.95361328125,0.08056640625
595,9.917,-0.266316105,0.8330367764400001,-0.44421526314000004,0.0205078125,1.15576171875,0.0224609375
596,9.933,-0.3302319702,0.88310420418,-0.67804080333,0.05126953125,0.986328125,0.033203125
597,9.950000000000001,-0.21252025179,0.8639294446200001,-0.27270769152,-0.06884765625,1.1171875,-0.00537109375
598,9.967,-0.02237055282,0.24927187428000003,-0.32224248705,-0.16162109375,1.1416015625,0.00341796875
599,9.983,0.10759170642,-0.19174759560000001,-0.25193503533,-0.0498046875,0.890625,-0.01318359375
600,10.0,0.014913701880000001,0.05219795658,0.04740426669,0.0126953125,0.78955078125,-0.02392578125
601,10.017,-0.11345066073000001,0.44314999872000005,-0.037284254700000005,-0.00146484375,0.90185546875,-0.02783203125
602,10.033,-0.12357067272000001,0.51505534707,-0.0213052884,0.00537109375,1.05126953125,-0.0166015625
603,10.05,-0.059122175310000004,0.31105721064,-0.16351808847000002,0.01171875,1.1591796875,-0.02978515625
604,10.067,-0.020772656190000002,0.05006742774,-0.19121496339000002,0.07861328125,1.08984375,-0.0390625
605,10.083,-0.08681905023,0.019707391770000002,-0.10013485548,0.12060546875,1.05859375,-0.06640625
606,10.1,-0.17363810046,-0.22157499936000002,0.07403587719,0.056640625,1.05078125,-0.03759765625
607,10.117,-0.11238539631000001,-0.41598575601000004,0.00958737978,-0.03271484375,0.87353515625,0.00048828125
608,10.133000000000001,-0.0106526442,-0.19600865328,-0.1278317304,-0.05419921875,0.771484375,0.0419921875
609,10.15,0.014913701880000001,0.16138755963,-0.18588864129000002,-0.025390625,0.76708984375,0.029296875
610,10.167,0.03302319702,0.5747101545900001,-0.20080234317,-0.0087890625,0.93359375,-0.02978515625
611,10.183,0.07190534835000001,0.6775081711200001,-0.12942962703000002,0.06494140625,1.14111328125,-0.0693359375
612,10.200000000000001,-0.017576862930000003,0.23595606903000002,0.00053263221,0.15087890625,1.20947265625,-0.0419921875
613,10.217,-0.19920444654000002,-0.09587379780000001,0.21784657389,0.10546875,1.09130859375,-0.0576171875
614,10.233,-0.27803401362,-0.14274543228,0.24714134544000002,-0.068359375,1.046875,-0.02734375
615,10.25,-0.12942962703000002,-0.18056231919000001,0.19121496339000002,-0.17236328125,0.955078125,0.0341796875
616,10.267,0.11824435062000001,-0.0319579326,0.0426105768,-0.12744140625,0.9287109375,0.02490234375
617,10.283,0.18322548024000002,0.18482337687,-0.13795174239000002,0.02880859375,0.9599609375,0.01123046875
618,10.3,0.05592638205,0.3249056481,0.02929477155,0.15234375,1.0654296875,0.00146484375
619,10.317,-0.04953479553,0.21678130947000002,0.27803401362,0.1025390625,1.10400390625,-0.01171875
620,10.333,-0.15446334090000002,0.11025486747,0.08788431465,0.0380859375,1.1123046875,0.00732421875
621,10.35,-0.14966965101000002,0.00426105768,-0.16671388173,-0.01171875,1.0517578125,0.0107421875
622,10.367,-0.10279801653000001,0.08202536034,-0.26258767953,0.05615234375,1.02490234375,-0.01025390625
623,10.383000000000001,-0.23542343682000003,0.18748653792,-0.04474110564,0.2626953125,0.9013671875,-0.037109375
624,10.4,-0.10439591316,0.15552860532,-0.02343581724,0.00634765625,1.10888671875,-0.01953125
625,10.417,-0.25779398964,-0.00798948315,0.15339807648,0.009765625,1.05078125,-0.0087890625
626,10.433,-0.1864212735,-0.3142530039,0.23648870124000002,-0.0751953125,0.978515625,0.01318359375
627,10.450000000000001,-0.13635384576,-0.18269284803000002,0.048469531110000005,-0.09814453125,0.8466796875,0.041015625
628,10.467,-0.06870955509,0.12623383377,-0.09001484349000001,-0.06884765625,0.8515625,0.0439453125
629,10.483,-0.055393749840000006,0.29774140539,-0.21678130947000002,0.02001953125,0.94091796875,0.0078125
630,10.5,-0.14594122554,0.27324032373,-0.14168016786,0.05322265625,1.021484375,-0.02685546875
631,10.517,-0.19121496339000002,0.07403587719,-0.050600059950000005,0.01025390625,1.0341796875,-0.021484375
632,10.533,-0.14913701880000002,-0.08575378581000001,0.023968449450000002,-0.04833984375,0.99658203125,-0.0087890625
633,10.55,-0.08096009592,-0.03302319702,-0.06977481951,-0.07470703125,0.919921875,-0.01611328125
634,10.567,0.012783173040000002,0.02929477155,-0.10226538432000001,-0.05615234375,0.9296875,0.0068359375
635,10.583,-0.00585895431,-0.05006742774,0.11078749968000001,-0.03076171875,0.8701171875,0.01025390625
636,10.6,-0.055393749840000006,0.14061490344000002,0.20399813643,-0.05615234375,0.89892578125,-0.029296875
637,10.617,-0.032490564810000004,0.27963191025,0.14434332891,-0.0400390625,1.04345703125,-0.05908203125
638,10.633000000000001,-0.044208473430000006,0.14327806449,0.06977481951,0.0107421875,1.1259765625,-0.06787109375
639,10.65,-0.05113269216000001,-0.1864212735,0.04740426669,-0.02734375,1.115234375,-0.0400390625
640,10.667,-0.0031957932600000004,-0.3515372586,0.18695390571,-0.06103515625,0.94921875,-0.01318359375
641,10.683,0.028762139340000003,-0.1331580525,0.29081718666,-0.109375,0.9013671875,-0.00830078125
642,10.700000000000001,0.13369068471,0.12250540830000001,0.28016454246,-0.10888671875,0.99560546875,-0.044921875
643,10.717,0.20133497538,0.0213052884,0.13262542029000002,-0.00634765625,1.1142578125,-0.03564453125
644,10.733,0.12250540830000001,-0.23116237914,0.03302319702,0.072265625,1.02783203125,-0.029296875
645,10.75,0.02343581724,-0.20133497538,0.10226538432000001,0.03466796875,0.97216796875,0.00048828125
646,10.767,-0.00905474757,-0.16618124952000002,0.27164242710000003,-0.01025390625,0.9150390625,0.0224609375
647,10.783,0.04900216332,0.06764429067000001,0.2237055282,-0.06591796875,0.962890625,-0.02197265625
648,10.8,0.11398329294000001,0.05379585321,0.14008227123,-0.0146484375,1.04248046875,-0.0224609375
649,10.817,0.09321063675,-0.26258767953,0.04207794459,0.03662109375,0.9521484375,0.00927734375
650,10.833,0.03568635807,-0.24021712671,0.13422331692,0.0400390625,0.82421875,0.0185546875
651,10.85,-0.05006742774,0.05805691089,0.19068233118000003,0.00537109375,0.8642578125,0.01953125
652,10.867,-0.034621093650000004,0.16884441057000002,0.10972223526000001,-0.0205078125,0.95361328125,0.01171875
653,10.883000000000001,0.04527373785,0.20825919411000002,-0.04687163448,0.03271484375,1.048828125,-0.02783203125
654,10.9,0.06444849741,0.04740426669,-0.17363810046,0.1298828125,1.05419921875,-0.044921875
655,10.917,-0.07084008393,-0.09161274012000001,-0.20293287201000001,0.05615234375,1.00390625,-0.05810546875
656,10.933,-0.1171790862,-0.12250540830000001,-0.28762139340000004,0.01123046875,0.95556640625,-0.02392578125
657,10.950000000000001,-0.12303804051,-0.20506340085000002,-0.17470336488000002,-0.05615234375,0.865234375,0.03271484375
658,10.967,-0.11930961504000001,-0.07510114161,-0.14913701880000002,-0.07470703125,0.8095703125,0.03369140625
659,10.983,-0.04953479553,0.22157499936000002,-0.24341291997,-0.0146484375,0.861328125,0.02099609375
660,11.0,-0.047936898900000004,0.30253509528,-0.10546117758000001,0.0185546875,0.97509765625,0.02197265625
661,11.017,0.0905474757,0.28762139340000004,-0.039414783540000005,0.03466796875,1.025390625,-0.0478515625
662,11.033,0.19281286002,0.02716424271,0.16458335289,-0.07763671875,1.20361328125,-0.0517578125
663,11.05,0.12037487946000001,0.07030745172000001,-0.17789915814,-0.0751953125,1.04931640625,-0.09033203125
664,11.067,0.10279801653000001,0.28921929003,0.034621093650000004,-0.0986328125,1.12353515625,-0.0673828125
665,11.083,0.11984224725,0.19014969897,0.07297061277,-0.0966796875,1.1630859375,-0.08984375
666,11.1,0.035153725860000005,0.0037284254700000003,0.19760654991,-0.03955078125,1.1376953125,-0.0986328125
667,11.117,-0.08628641802,-0.19014969897,0.5406216931500001,-0.0107421875,1.05859375,-0.0947265625
668,11.133000000000001,-0.11824435062000001,-0.39468046761000003,0.66738815913,-0.00830078125,1.04736328125,-0.0810546875
669,11.15,-0.08788431465,-0.49055426541,0.5310343133700001,0.01171875,0.9482421875,-0.04052734375
670,11.167,-0.08575378581000001,-0.43302998673000004,0.31372037169,0.01904296875,0.880859375,-0.009765625
671,11.183,-0.05113269216000001,-0.33928671777,0.17310546825,0.00537109375,0.83837890625,0.01708984375
672,11.200000000000001,0.021837920610000002,-0.27324032373,0.14168016786,0.0029296875,0.76904296875,0.0234375
673,11.217,0.046339002270000006,0.23542343682000003,0.056991646470000004,-0.01318359375,0.8134765625,-0.029296875
674,11.233,0.07456850940000001,0.42876892905,-0.041545312380000005,0.017578125,1.01953125,-0.05859375
675,11.25,0.02822950713,0.16884441057000002,-0.01917475956,0.1005859375,1.09716796875,-0.0654296875
676,11.267,-0.00053263221,-0.08096009592,0.059122175310000004,0.05078125,1.0791015625,-0.0576171875
677,11.283,-0.07723167045000001,-0.12303804051,0.02822950713,0.0625,0.9970703125,-0.0302734375
678,11.3,-0.09800432664,0.14327806449,-0.07510114161,-0.0283203125,0.9775390625,-0.04345703125
679,11.317,0.07776430266,0.25885925406000004,-0.12570120156,-0.0771484375,1.0419921875,-0.025390625
680,11.333,0.2396844945,0.29028455445,-0.20506340085000002,-0.025390625,1.0751953125,-0.07275390625
681,11.35,0.27750138141,0.30999194622000004,-0.27324032373,0.09716796875,1.19580078125,-0.12353515625
682,11.367,0.15073491543,0.006924218730000001,-0.16351808847000002,0.15966796875,1.259765625,-0.1455078125
683,11.383000000000001,-0.01225054083,-0.30626352075,0.16298545626000002,0.08203125,1.1806640625,-0.13232421875
684,11.4,-0.01651159851,-0.58855859205,0.25832662185,-0.04248046875,1.076171875,-0.0908203125
685,11.417,0.12836436261,-0.70573767825,-0.00053263221,-0.125,0.88427734375,-0.0439453125
686,11.433,0.32437301589,-0.59335228194,-0.24234765555,-0.0478515625,0.6767578125,0.0380859375
687,11.450000000000001,0.27750138141,-0.22530342483000002,-0.13954963902,0.14501953125,0.58251953125,0.025390625
688,11.467,-0.18269284803000002,0.27164242710000003,0.06338323299000001,0.12841796875,0.728515625,-0.03125
689,11.483,-0.19068233118000003,0.5294364167400001,0.16085492742000002,-0.07861328125,1.005859375,-0.00634765625
690,11.5,0.02929477155,-0.09427590117000001,-0.06924218730000001,0.0146484375,0.9990234375,0.015625
691,11.517,0.01225054083,-0.036751622490000004,-0.12623383377,0.04638671875,0.87451171875,-0.0126953125
692,11.533,-0.05113269216000001,0.38988677772,-0.2609897829,-0.02587890625,0.93701171875,-0.0322265625
693,11.55,-0.02716424271,0.66206183703,-0.1171790862,-0.046875,1.1416015625,-0.06884765625
694,11.567,0.09853695885000001,0.47137950585000005,0.06977481951,-0.0556640625,1.4150390625,-0.1181640625
695,11.583,0.16138755963,-0.11291802852,0.10066748769,0.0283203125,1.4306640625,-0.123046875
696,11.6,0.13688647797,-0.5406216931500001,0.13582121355000001,0.01416015625,1.25146484375,-0.08935546875
697,11.617,0.13741911018,-0.49694585193,0.15339807648,-0.03515625,1.095703125,-0.046875
698,11.633000000000001,0.12996225924000002,-0.3675162249,0.23542343682000003,-0.00048828125,1.02294921875,-0.0107421875
699,11.65,0.08628641802,-0.31585090053000003,0.22690132146000003,-0.025390625,0.982421875,-0.013671875
700,11.667,0.12516856935,-0.14274543228,0.06018743973000001,-0.02880859375,0.95361328125,-0.033203125
701,11.683,0.18056231919000001,-0.19014969897,0.013848437460000002,-0.0166015625,0.97314453125,-0.02734375
702,11.700000000000001,0.16138755963,-0.32650354473000004,0.00958737978,0.015625,0.89306640625,-0.0185546875
703,11.717,0.06711165846,-0.33875408556000003,0.030892668180000003,-0.00048828125,0.755859375,-0.00732421875
704,11.733,0.11398329294000001,-0.21678130947000002,0.16298545626000002,-0.0693359375,0.7197265625,0.01025390625
705,11.75,0.21624867726000002,-0.01704423072,0.16777914615,-0.00390625,0.7099609375,0.01904296875
706,11.767,0.17789915814,0.16405072068,0.24021712671,0.0576171875,0.81689453125,0.01220703125
707,11.783,0.14966965101000002,0.24341291997,0.08841694686000001,0.03759765625,0.90283203125,-0.00927734375
708,11.8,0.15552860532,0.34674356871,-0.06551376183,0.05712890625,1.013671875,-0.0029296875
709,11.817,0.15499597311000002,0.40373521518000005,-0.020772656190000002,0.103515625,1.15185546875,-0.0361328125
710,11.833,0.10546117758000001,0.29774140539,-0.028762139340000003,0.1435546875,1.259765625,-0.0498046875
711,11.85,-0.01704423072,0.12197277609000001,0.15499597311000002,0.0966796875,1.2978515625,-0.05810546875
712,11.867,-0.00213052884,-0.03834951912,0.14114753565000002,-0.005859375,1.35888671875,-0.1064453125
713,11.883000000000001,0.06231796857000001,-0.17363810046,-0.05113269216000001,-0.0205078125,1.3330078125,-0.11328125
714,11.9,0.19760654991,-0.30679615296,-0.57843858006,-0.01025390625,1.2197265625,-0.08642578125
715,11.917,0.21092235516000002,-0.34194987882,-0.6215817890700001,0.078125,1.04345703125,-0.048828125
716,11.933,0.07936219929,-0.39894152529000004,-0.35047199418,0.0908203125,0.962890625,-0.029296875
717,11.950000000000001,-0.014381069670000001,-0.49747848414,-0.11771171841000001,0.06591796875,0.85302734375,-0.0283203125
718,11.967,-0.046339002270000006,-0.47457529911,0.014381069670000001,0.06787109375,0.7216796875,0.00146484375
719,11.983,-0.047936898900000004,-0.37017938595000005,0.006391586520000001,0.0400390625,0.64794921875,0.0126953125
720,12.0,-0.00479368989,-0.21518341284,-0.09374326896,0.0400390625,0.60498046875,0.0302734375
721,12.017,0.02450108166,0.00798948315,-0.0213052884,0.02294921875,0.6484375,-0.00439453125
722,12.033,0.00852211536,0.19707391770000002,-0.03355582923,0.0625,0.75927734375,0.0
723,12.05,-0.06231796857000001,0.18002968698000002,0.07190534835000001,0.087890625,0.8134765625,-0.0048828125
724,12.067,-0.09321063675,0.33289513125000003,0.10918960305,0.0478515625,0.8759765625,-0.017578125
725,12.083,-0.047936898900000004,0.47990162121,0.048469531110000005,0.05712890625,1.0146484375,-0.03076171875
726,12.1,-0.0426105768,0.48149951784000006,0.01917475956,0.11962890625,1.125,-0.05126953125
727,12.117,-0.10333064874,0.45167211408,-0.13209278808,0.1083984375,1.27001953125,-0.068359375
728,12.133000000000001,-0.14594122554,0.23276027577000002,-0.08202536034,0.0625,1.31640625,-0.07177734375
729,12.15,-0.13369068471,0.09693906222000001,-0.0159789663,-0.01416015625,1.3154296875,-0.08349609375
730,12.167,-0.06870955509,-0.02929477155,-0.04474110564,-0.04833984375,1.30322265625,-0.06884765625
731,12.183,-0.00585895431,-0.10333064874,-0.0159789663,-0.046875,1.24169921875,-0.060546875
732,12.200000000000001,-0.01012001199,-0.10492854537,0.15286544427,-0.009765625,1.2265625,-0.068359375
733,12.217,-0.057524278680000006,-0.15552860532,0.21891183831000002,-0.001953125,1.24072265625,-0.09716796875
734,12.233,-0.0639158652,-0.3781688691,0.23489080461,-0.0234375,1.2158203125,-0.10205078125
735,12.25,-0.03142530039,-0.7318366565400001,0.12303804051,-0.0380859375,1.0,-0.0439453125
736,12.267,0.018642127350000003,-0.7515440483100001,-0.02929477155,-0.07666015625,0.70556640625,0.0322265625
737,12.283,0.09001484349000001,-0.43302998673000004,-0.09214537233,-0.044921875,0.55908203125,0.08837890625
738,12.3,0.00053263221,-0.10759170642,0.17257283604,0.03515625,0.529296875,0.091796875
739,12.317,-0.06498112962000001,0.14487596112,0.25939188627000004,0.02099609375,0.6630859375,0.07861328125
740,12.333,0.021837920610000002,0.14061490344000002,-0.007456850940000001,0.03515625,0.68603515625,0.07568359375
741,12.35,0.05006742774,0.25300029975,-0.11504855736000001,0.0986328125,0.65087890625,0.0986328125
742,12.367,-0.012783173040000002,0.56032908492,-0.10972223526000001,0.07080078125,0.79052734375,0.0419921875
743,12.383000000000001,-0.00426105768,0.59281964973,-0.10013485548,0.0478515625,0.970703125,-0.0244140625
744,12.4,0.021837920610000002,0.45753106839,-0.09960222327000001,0.04931640625,1.14208984375,-0.1181640625
745,12.417,-0.06338323299000001,-0.0319579326,0.00426105768,0.111328125,1.16845703125,-0.10205078125
746,12.433,-0.14913701880000002,-0.5006742774,0.07403587719,0.0703125,0.9521484375,-0.0244140625
747,12.450000000000001,-0.14860438659,-0.42983419347,0.04474110564,-0.02587890625,0.68115234375,0.0498046875
748,12.467,-0.04048004796,0.07297061277,-0.10120011990000001,-0.0546875,0.6220703125,0.103515625
749,12.483,0.03036003597,0.48309741447000004,-0.10918960305,-0.0224609375,0.81298828125,0.060546875
750,12.5,0.04900216332,0.67218184902,-0.10652644200000001,0.0400390625,1.0830078125,-0.0126953125
751,12.517,0.006391586520000001,0.5752427868000001,-0.13741911018,0.07763671875,1.341796875,-0.10009765625
752,12.533,-0.08362325697,0.27377295594,-0.17789915814,0.1015625,1.39453125,-0.10400390625
753,12.55,-0.17417073267000002,0.0159789663,-0.08415588918,0.0283203125,1.32177734375,-0.07763671875
754,12.567,-0.17150757162000002,-0.04474110564,-0.07243798056,-0.09521484375,1.244140625,-0.07373046875
755,12.583,-0.03834951912,-0.0159789663,0.037284254700000005,-0.134765625,1.21142578125,-0.0615234375
756,12.6,0.03036003597,0.00958737978,0.034621093650000004,-0.12939453125,1.23193359375,-0.1044921875
757,12.617,0.04314320901,-0.18482337687,0.11664645399000001,-0.03271484375,1.21728515625,-0.07861328125
758,12.633000000000001,-0.032490564810000004,-0.43729104441000005,0.19387812444000002,0.005859375,1.044921875,-0.03125
759,12.65,-0.04900216332,-0.39361520319000004,0.17523599709,-0.037109375,0.904296875,0.02587890625
760,12.667,0.025566346080000003,-0.02929477155,0.09693906222000001,-0.04150390625,0.865234375,0.02734375
761,12.683,0.06711165846,0.29880666981000004,0.09321063675,-0.01953125,1.0419921875,-0.0517578125
762,12.700000000000001,0.10599380979,0.22743395367000002,0.10865697084,-0.005859375,1.3203125,-0.1748046875
763,12.717,0.09267800454000001,-0.32437301589,-0.00266316105,0.0234375,1.36181640625,-0.2021484375
764,12.733,0.03408846144,-0.9544769203200001,0.035153725860000005,0.033203125,1.10107421875,-0.1484375
765,12.75,-0.07723167045000001,-1.16007295338,0.27324032373,-0.041015625,0.7109375,-0.04736328125
766,12.767,-0.04314320901,-0.95021586264,0.32863407357,-0.1298828125,0.51806640625,0.04150390625
767,12.783,0.19121496339000002,-0.56778593586,0.10013485548,-0.11279296875,0.41796875,0.078125
768,12.8,0.30573088854,-0.07350324498000001,-0.17470336488000002,0.0244140625,0.45849609375,0.10302734375
769,12.817,0.266316105,0.26738136942,-0.26844663384,0.10595703125,0.6376953125,0.080078125
770,12.833,0.17683389372000002,0.36911412153,-0.26738136942,0.13720703125,0.8232421875,0.0712890625
771,12.85,0.028762139340000003,0.27696874920000003,-0.11291802852,0.12646484375,0.904296875,0.05419921875
772,12.867,-0.07084008393,0.27909927804,0.02822950713,0.0712890625,0.92626953125,0.06396484375
773,12.883000000000001,-0.07137271614,0.37390781142,0.0159789663,0.00732421875,0.96484375,0.0556640625
774,12.9,-0.034621093650000004,0.5198490369600001,-0.04048004796,0.00732421875,1.05224609375,0.044921875
775,12.917,-0.05166532437,0.57737331564,0.06285060078,-0.00537109375,1.1669921875,-0.0068359375
776,12.933,-0.06338323299000001,0.53263221,0.0905474757,-0.02294921875,1.30810546875,-0.0576171875
777,12.950000000000001,-0.023968449450000002,0.26258767953,-0.023968449450000002,-0.0029296875,1.38330078125,-0.0712890625
778,12.967,-0.034621093650000004,0.015446334090000001,-0.15180017985000002,0.013671875,1.27294921875,-0.03369140625
779,12.983,-0.0639158652,0.04740426669,-0.14966965101000002,-0.03369140625,1.2119140625,-0.03076171875
780,13.0,-0.019707391770000002,0.10226538432000001,-0.13688647797,-0.095703125,1.25146484375,-0.068359375
781,13.017,0.02343581724,-0.01651159851,-0.12676646598000002,-0.07177734375,1.28125,-0.11279296875
782,13.033,-0.00585895431,-0.29507824434,-0.00479368989,-0.07861328125,1.2265625,-0.11767578125
783,13.05,0.0015978966300000002,-0.52357746243,0.06551376183,-0.126953125,1.08740234375,-0.10302734375
784,13.067,0.059122175310000004,-0.60347229393,0.11558118957,-0.12841796875,0.87841796875,-0.06982421875
785,13.083,0.11824435062000001,-0.54488275083,0.09800432664,-0.1044921875,0.75927734375,-0.0283203125
786,13.1,0.12303804051,-0.35420041965000004,-0.00266316105,-0.0634765625,0.6298828125,0.00244140625
787,13.117,0.06018743973000001,-0.21198761958,0.18855180234000002,-0.0390625,0.57958984375,0.0302734375
788,13.133000000000001,0.07243798056,0.09427590117000001,0.17789915814,-0.052734375,0.63671875,0.01123046875
789,13.15,0.13369068471,0.22956448251,0.013315805250000002,-0.00244140625,0.78857421875,0.01318359375
790,13.167,0.10492854537,0.25353293196000004,0.04527373785,0.07373046875,0.796875,-0.00537109375
791,13.183,0.00905474757,0.45540053955000004,0.10705907421000001,0.0576171875,0.908203125,-0.06298828125
792,13.200000000000001,0.0015978966300000002,0.49161952983,0.00053263221,0.01123046875,1.13427734375,-0.10546875
793,13.217,0.03781688691,0.20453076864000003,-0.02503371387,0.02490234375,1.17041015625,-0.11767578125
794,13.233,0.0053263221,0.0798948315,-0.022903185030000002,0.01904296875,1.16357421875,-0.1376953125
795,13.25,-0.01171790862,-0.08575378581000001,-0.10013485548,-0.0283203125,1.15185546875,-0.12744140625
796,13.267,-0.01012001199,-0.24820660986,-0.02609897829,-0.05224609375,1.01953125,-0.08203125
797,13.283,0.037284254700000005,-0.08841694686000001,0.06285060078,-0.03955078125,1.001953125,-0.10205078125
798,13.3,0.036751622490000004,0.00426105768,0.0106526442,0.02783203125,1.12744140625,-0.11279296875
799,13.317,-0.013848437460000002,-0.15286544427,-0.02450108166,0.0546875,1.1328125,-0.10546875
800,13.333,-0.06604639404,-0.16831177836,0.07243798056,0.03564453125,1.07177734375,-0.10595703125
801,13.35,-0.09853695885000001,-0.12463593714000001,0.15606123753,0.00244140625,1.07177734375,-0.107421875
802,13.367,-0.05379585321,-0.13635384576,0.15073491543,-0.03515625,1.06982421875,-0.126953125
803,13.383000000000001,0.02343581724,-0.14381069670000002,-0.00852211536,0.0029296875,1.07958984375,-0.1279296875
804,13.4,-0.02609897829,-0.19813918212,0.11930961504000001,0.03662109375,0.9794921875,-0.1259765625
805,13.417,-0.07669903824,-0.14381069670000002,0.17150757162000002,0.01708984375,0.978515625,-0.13623046875
806,13.433,-0.09480853338,-0.14647385775000002,0.17683389372000002,0.05126953125,0.95458984375,-0.13037109375
807,13.450000000000001,-0.13741911018,-0.1278317304,0.22690132146000003,0.0751953125,0.896484375,-0.1103515625
808,13.467,-0.13156015587,-0.030892668180000003,0.14061490344000002,0.0498046875,0.90576171875,-0.1015625
809,13.483,-0.09693906222000001,0.0905474757,-0.022903185030000002,0.01953125,0.8857421875,-0.0986328125
810,13.5,-0.04048004796,0.26258767953,-0.03408846144,-0.00146484375,0.95068359375,-0.12646484375
811,13.517,-0.02609897829,0.24074975892000003,-0.027696874920000003,0.03173828125,1.0908203125,-0.16796875
812,13.533,-0.10173275211,0.044208473430000006,0.12410330493,0.05419921875,1.08740234375,-0.16357421875
813,13.55,-0.14327806449,-0.01704423072,0.17470336488000002,0.0126953125,1.029296875,-0.1337890625
814,13.567,-0.05592638205,0.050600059950000005,0.10492854537,-0.03515625,0.99755859375,-0.12841796875
815,13.583,0.01118527641,0.16458335289,-0.032490564810000004,-0.03076171875,0.994140625,-0.1240234375
816,13.6,0.0159789663,0.17150757162000002,0.018642127350000003,-0.02294921875,1.0380859375,-0.14404296875
817,13.617,-0.03302319702,0.10226538432000001,0.13102752366,0.0078125,1.0771484375,-0.1357421875
818,13.633000000000001,-0.05432848542,0.013848437460000002,0.14114753565000002,-0.0078125,1.08935546875,-0.13623046875
819,13.65,-0.00213052884,-0.0585895431,0.0,-0.01123046875,1.072265625,-0.1142578125
820,13.667,0.03036003597,-0.03781688691,-0.10599380979,0.01025390625,1.00439453125,-0.0908203125
821,13.683,-0.0053263221,0.05379585321,-0.05006742774,0.00830078125,1.01025390625,-0.0849609375
822,13.700000000000001,-0.006924218730000001,0.06817692288,0.01917475956,-0.01806640625,1.06494140625,-0.10546875
823,13.717,0.0037284254700000003,0.01704423072,0.01704423072,-0.0234375,1.0908203125,-0.1103515625
824,13.733,0.006391586520000001,0.01118527641,0.04900216332,-0.01513671875,1.095703125,-0.12158203125
825,13.75,0.02609897829,-0.0585895431,-0.00266316105,-0.01953125,1.125,-0.134765625
826,13.767,0.061785336360000005,-0.16138755963,-0.06604639404,-0.0205078125,1.091796875,-0.1162109375
827,13.783,0.0639158652,-0.17683389372000002,0.05645901426,-0.0087890625,0.984375,-0.1142578125
828,13.8,0.044208473430000006,-0.10226538432000001,0.2290318503,0.00537109375,0.97705078125,-0.12939453125
829,13.817,0.06711165846,-0.13475594913,0.17736652593000002,0.01953125,1.0322265625,-0.15673828125
830,13.833,0.08575378581000001,-0.25992451848000003,0.12570120156,0.02685546875,0.98046875,-0.142578125
831,13.85,0.09480853338,-0.18482337687,0.05219795658,0.0322265625,0.857421875,-0.11962890625
832,13.867,0.07882956708000001,-0.0852211536,0.07616640603000001,0.0595703125,0.86767578125,-0.0849609375
833,13.883000000000001,0.06977481951,0.044208473430000006,0.11824435062000001,0.060546875,0.8876953125,-0.09716796875
834,13.9,0.06604639404,0.19973707875000002,0.055393749840000006,0.09814453125,0.98974609375,-0.1103515625
835,13.917,0.03568635807,0.15446334090000002,0.029827403760000003,0.11328125,1.0986328125,-0.13232421875
836,13.933,0.00266316105,0.03888215133,0.01651159851,0.1005859375,1.12890625,-0.1484375
837,13.950000000000001,-0.047936898900000004,-0.12037487946000001,0.08096009592,0.07666015625,1.08251953125,-0.134765625
838,13.967,-0.07190534835000001,-0.18322548024000002,0.10705907421000001,0.03759765625,0.958984375,-0.10009765625
839,13.983,-0.032490564810000004,-0.0798948315,0.03355582923,0.03662109375,0.89990234375,-0.0712890625
840,14.0,-0.019707391770000002,0.02609897829,0.017576862930000003,0.0634765625,0.90673828125,-0.0576171875
841,14.017,-0.047936898900000004,0.09853695885000001,0.02343581724,0.07275390625,0.9453125,-0.0732421875
842,14.033,-0.09480853338,0.10439591316,0.048469531110000005,0.064453125,0.9609375,-0.07080078125
843,14.05,-0.10812433863000001,0.14061490344000002,0.08841694686000001,0.01611328125,0.97509765625,-0.0810546875
844,14.067,-0.07243798056,0.18429074466,0.039414783540000005,0.001953125,1.05029296875,-0.08935546875
845,14.083,-0.02450108166,0.11025486747,-0.02024002398,0.0029296875,1.06005859375,-0.09375
846,14.1,-0.02716424271,0.10120011990000001,-0.00905474757,0.02392578125,1.044921875,-0.08935546875
847,14.117,-0.06764429067000001,0.07137271614,0.11824435062000001,0.01220703125,1.06494140625,-0.099609375
848,14.133000000000001,-0.04953479553,0.0,0.14168016786,-0.02197265625,1.08984375,-0.115234375
849,14.15,0.00053263221,-0.0798948315,0.09480853338,0.00048828125,1.06201171875,-0.10791015625
850,14.167,0.0159789663,-0.11558118957,0.03568635807,0.02197265625,1.005859375,-0.10498046875
851,14.183,0.014913701880000001,-0.10705907421000001,0.00106526442,0.02392578125,0.94775390625,-0.08984375
852,14.200000000000001,0.013848437460000002,-0.0213052884,0.0031957932600000004,0.03076171875,0.923828125,-0.08251953125
853,14.217,-0.00426105768,-0.00266316105,0.05379585321,0.0126953125,0.9326171875,-0.078125
854,14.233,0.018642127350000003,0.043675841220000004,0.04101268017,0.0009765625,0.93212890625,-0.0849609375
855,14.25,0.04527373785,0.12410330493,0.012783173040000002,0.02490234375,0.9521484375,-0.08203125
856,14.267,0.057524278680000006,0.20133497538,-0.048469531110000005,0.041015625,1.00732421875,-0.0888671875
857,14.283,0.047936898900000004,0.22849921809,-0.025566346080000003,0.07080078125,1.0615234375,-0.10693359375
858,14.3,0.0,0.19441075665000002,0.02822950713,0.07177734375,1.1650390625,-0.13671875
859,14.317,-0.02237055282,0.0106526442,0.050600059950000005,0.03271484375,1.19970703125,-0.158203125
860,14.333,-0.01704423072,-0.18695390571,0.08362325697,0.01123046875,1.13818359375,-0.13916015625
861,14.35,0.00905474757,-0.2183792061,0.13209278808,-0.00341796875,1.03515625,-0.11572265625
862,14.367,0.04474110564,-0.16298545626000002,0.08468852139000001,0.0322265625,0.97998046875,-0.09228515625
863,14.383000000000001,0.07882956708000001,-0.13528858134000002,0.006391586520000001,0.06298828125,1.00537109375,-0.1064453125
864,14.4,0.04687163448,-0.16032229521000002,-0.05379585321,0.119140625,0.978515625,-0.0927734375
865,14.417,-0.022903185030000002,-0.13156015587,-0.01917475956,0.091796875,0.92041015625,-0.07275390625
866,14.433,-0.0213052884,-0.00266316105,0.0015978966300000002,0.056640625,0.931640625,-0.06689453125
867,14.450000000000001,0.007456850940000001,0.06498112962000001,-0.0031957932600000004,0.03857421875,0.986328125,-0.0810546875
868,14.467,0.02929477155,0.07616640603000001,-0.007456850940000001,0.03369140625,1.02783203125,-0.09765625
869,14.483,0.02503371387,0.01917475956,-0.029827403760000003,0.05224609375,1.05029296875,-0.09814453125
870,14.5,-0.02237055282,-0.044208473430000006,0.0159789663,0.0517578125,1.0,-0.0751953125
871,14.517,-0.02450108166,0.035153725860000005,0.04687163448,0.0205078125,1.00634765625,-0.0712890625
872,14.533,0.0159789663,0.05006742774,0.04207794459,0.005859375,1.05908203125,-0.08251953125
873,14.55,0.055393749840000006,-0.00266316105,-0.04687163448,0.01806640625,1.05908203125,-0.09814453125
874,14.567,0.06338323299000001,-0.06764429067000001,-0.055393749840000006,0.0009765625,1.07861328125,-0.1025390625
875,14.583,0.09001484349000001,-0.22583605704,-0.10865697084,-0.02099609375,0.9599609375,-0.07861328125
876,14.6,0.12516856935,-0.12357067272000001,-0.16724651394,-0.0029296875,0.84619140625,-0.03564453125
877,14.617,0.09640643001,0.06498112962000001,-0.02822950713,-0.0029296875,0.8330078125,-0.03857421875
878,14.633000000000001,0.08788431465,0.23648870124000002,0.014913701880000001,0.00732421875,0.96484375,-0.05419921875
879,14.65,0.10918960305,0.18375811245,-0.00905474757,0.03173828125,1.0498046875,-0.06494140625
880,14.667,0.09214537233,0.15073491543,-0.047936898900000004,0.06494140625,1.046875,-0.08203125
881,14.683,0.034621093650000004,0.14807175438,0.03621899028,0.068359375,1.08642578125,-0.07763671875
882,14.700000000000001,0.030892668180000003,0.09693906222000001,0.07084008393,0.0205078125,1.11669921875,-0.107421875
883,14.717,0.06018743973000001,0.07297061277,0.055393749840000006,0.0322265625,1.1455078125,-0.10986328125
884,14.733,0.06231796857000001,0.00213052884,0.08042746371000001,0.03515625,1.150390625,-0.13427734375
885,14.75,0.06604639404,-0.0905474757,0.046339002270000006,0.06494140625,1.15771484375,-0.1494140625
886,14.767,0.006391586520000001,-0.31744879716,0.06018743973000001,0.07373046875,1.0791015625,-0.1357421875
887,14.783,-0.019707391770000002,-0.39201730656,-0.0053263221,0.0205078125,0.93408203125,-0.09912109375
888,14.8,0.013848437460000002,-0.25300029975,-0.08042746371000001,-0.01953125,0.806640625,-0.05712890625
889,14.817,0.0585895431,0.0159789663,-0.08468852139000001,-0.0009765625,0.8173828125,-0.037109375
890,14.833,0.06711165846,0.15126754764,0.02343581724,0.029296875,0.91552734375,-0.05517578125
891,14.85,0.07297061277,0.22104236715,-0.0015978966300000002,0.0634765625,1.04833984375,-0.1123046875
892,14.867,0.01012001199,0.032490564810000004,-0.023968449450000002,0.08544921875,1.0966796875,-0.12060546875
893,14.883000000000001,-0.029827403760000003,-0.11398329294000001,-0.0426105768,0.0537109375,1.02880859375,-0.10107421875
894,14.9,-0.04207794459,-0.10918960305,-0.032490564810000004,0.0166015625,0.94482421875,-0.07177734375
895,14.917,-0.02237055282,0.06338323299000001,0.006924218730000001,-0.0126953125,0.95703125,-0.07958984375
896,14.933,0.0031957932600000004,0.11291802852,0.03621899028,-0.00244140625,1.06005859375,-0.10009765625
897,14.950000000000001,0.03834951912,-0.02503371387,0.0106526442,0.02587890625,1.1103515625,-0.11962890625
898,14.967,0.0015978966300000002,-0.13156015587,-0.00479368989,0.07421875,1.04541015625,-0.107421875
899,14.983,-0.07084008393,-0.15233281206000002,0.039414783540000005,0.05712890625,0.98876953125,-0.080078125
900,15.0,-0.07829693487,-0.15233281206000002,0.11078749968000001,0.0185546875,0.96826171875,-0.083984375
901,15.017,-0.02237055282,-0.059122175310000004,0.06338323299000001,0.00146484375,0.98291015625,-0.08203125
902,15.033,0.0031957932600000004,-0.08468852139000001,0.07084008393,0.01513671875,1.00537109375,-0.0888671875
903,15.05,-0.00426105768,-0.13688647797,0.14221280007,0.0126953125,0.97119140625,-0.087890625
904,15.067,0.014913701880000001,-0.13156015587,0.13369068471,0.01123046875,0.94970703125,-0.0830078125
905,15.083,0.02343581724,-0.09587379780000001,0.09587379780000001,0.0458984375,0.91064453125,-0.068359375
906,15.1,-0.0159789663,-0.0106526442,0.13635384576,0.06103515625,0.900390625,-0.05615234375
907,15.117,-0.03994741575,0.08841694686000001,0.13582121355000001,0.05419921875,0.9560546875,-0.076171875
908,15.133000000000001,-0.0426105768,0.09267800454000001,0.13422331692,0.0380859375,1.02490234375,-0.1025390625
909,15.15,-0.02822950713,0.03994741575,0.07403587719,0.044921875,1.05615234375,-0.11767578125
910,15.167,-0.04314320901,-0.0905474757,0.034621093650000004,0.07958984375,1.05419921875,-0.1044921875
911,15.183,-0.07137271614,-0.17417073267000002,-0.00266316105,0.08642578125,0.98291015625,-0.08984375
912,15.200000000000001,-0.13582121355000001,-0.09161274012000001,0.02237055282,0.1103515625,0.89208984375,-0.0546875
913,15.217,-0.16884441057000002,0.01917475956,0.08681905023,0.08251953125,0.90869140625,-0.04248046875
914,15.233,-0.17097493941,0.12516856935,0.04048004796,0.1142578125,0.92431640625,-0.04736328125
915,15.25,-0.20559603306000002,0.24021712671,0.03036003597,0.13916015625,1.01025390625,-0.06982421875
916,15.267,-0.20612866527,0.21571604505000003,-0.046339002270000006,0.1181640625,1.11962890625,-0.1103515625
917,15.283,-0.21038972295000002,0.054861117630000004,-0.1118527641,0.12158203125,1.1435546875,-0.11865234375
918,15.3,-0.25353293196000004,-0.11984224725,-0.0798948315,0.109375,1.06298828125,-0.10595703125
919,15.317,-0.31531826832000004,-0.12996225924000002,-0.01225054083,0.06298828125,0.9619140625,-0.06591796875
920,15.333,-0.29348034771000003,-0.0319579326,0.00426105768,-0.00439453125,0.92626953125,-0.04833984375
921,15.35,-0.22423816041000003,0.10386328095000001,-0.022903185030000002,0.02099609375,0.9453125,-0.05859375
922,15.367,-0.23542343682000003,0.11771171841000001,0.046339002270000006,0.044921875,1.00830078125,-0.07666015625
923,15.383000000000001,-0.22690132146000003,0.09374326896,-0.00266316105,0.0302734375,1.0634765625,-0.1005859375
924,15.4,-0.22050973494,-0.0031957932600000004,-0.006924218730000001,0.0107421875,1.07421875,-0.11962890625
925,15.417,-0.21252025179,-0.06338323299000001,-0.0213052884,0.0,1.0634765625,-0.10009765625
926,15.433,-0.18855180234000002,-0.10705907421000001,0.013315805250000002,-0.01904296875,1.02978515625,-0.09716796875
927,15.450000000000001,-0.17150757162000002,-0.06870955509,0.03888215133,-0.01220703125,1.02197265625,-0.1025390625
928,15.467,-0.17257283604,-0.06764429067000001,0.07882956708000001,-0.00439453125,1.06689453125,-0.10791015625
929,15.483,-0.14966965101000002,-0.19228022781,0.035153725860000005,-0.0185546875,1.08544921875,-0.10400390625
930,15.5,-0.12357067272000001,-0.31904669379,-0.00958737978,-0.03369140625,0.96826171875,-0.0732421875
931,15.517,-0.12889699482,-0.27217505931,0.00053263221,-0.0517578125,0.8740234375,-0.0361328125
932,15.533,-0.0585895431,-0.16032229521000002,-0.00585895431,-0.07666015625,0.84619140625,-0.01806640625
933,15.55,0.00266316105,-0.041545312380000005,0.013315805250000002,-0.06103515625,0.857421875,-0.0107421875
934,15.567,0.021837920610000002,0.05592638205,0.048469531110000005,-0.048828125,0.88916015625,-0.02197265625
935,15.583,0.022903185030000002,0.10066748769,0.08149272813000001,-0.0341796875,0.92724609375,-0.0322265625
936,15.6,0.02343581724,0.10066748769,0.04207794459,-0.0302734375,0.98876953125,-0.04833984375
937,15.617,0.0159789663,0.04527373785,0.01704423072,-0.04345703125,0.9853515625,-0.044921875
938,15.633000000000001,0.04048004796,0.06817692288,-0.00053263221,-0.076171875,0.96875,-0.037109375
939,15.65,0.09587379780000001,0.18801917013000002,-0.045806370060000004,-0.0751953125,0.98828125,-0.052734375
940,15.667,0.12250540830000001,0.20080234317,-0.05166532437,-0.046875,1.06298828125,-0.08984375
941,15.683,0.14487596112,0.06338323299000001,-0.07936219929,-0.02978515625,1.12548828125,-0.08642578125
942,15.700000000000001,0.17257283604,-0.09534116559000001,-0.09001484349000001,-0.0380859375,1.0537109375,-0.06982421875
943,15.717,0.22264026378000001,-0.04207794459,-0.11558118957,-0.02978515625,0.97265625,-0.03662109375
944,15.733,0.13954963902,0.15126754764,-0.32224248705,-0.03515625,0.97314453125,-0.04443359375
945,15.75,-0.041545312380000005,0.20825919411000002,-0.41545312380000005,-0.00537109375,1.0234375,-0.0751953125
946,15.767,-0.05592638205,0.16564861731000002,-0.41651838822000004,0.05419921875,1.0908203125,-0.1259765625
947,15.783,-0.27324032373,0.01012001199,-0.37071201816000005,0.08349609375,1.13232421875,-0.169921875
948,15.8,-0.26578347279000003,-0.25939188627000004,-0.18588864129000002,0.05126953125,1.0537109375,-0.142578125
949,15.817,-0.21465078063,-0.31158984285,0.07297061277,0.01513671875,0.97900390625,-0.126953125
950,15.833,-0.11930961504000001,-0.16724651394,0.09321063675,-0.0302734375,1.00439453125,-0.12890625
951,15.85,-0.02237055282,-0.09161274012000001,-0.07776430266,0.0087890625,0.9599609375,-0.08740234375
952,15.867,-0.00798948315,0.06018743973000001,-0.02609897829,0.0341796875,0.9462890625,-0.07958984375
953,15.883000000000001,-0.02929477155,0.16884441057000002,0.15126754764,0.10791015625,0.9794921875,-0.09912109375
954,15.9,-0.13422331692,0.20666129748,0.22157499936000002,0.10107421875,1.15869140625,-0.16064453125
955,15.917,-0.12410330493,-0.03834951912,0.19973707875000002,0.07470703125,1.15966796875,-0.16552734375
956,15.933,-0.054861117630000004,-0.13369068471,0.0905474757,0.0390625,1.09619140625,-0.162109375
957,15.950000000000001,-0.017576862930000003,-0.17363810046,0.07882956708000001,0.05810546875,1.0263671875,-0.11376953125
958,15.967,-0.01917475956,-0.15712650195,0.15339807648,0.04248046875,0.927734375,-0.107421875
959,15.983,-0.02929477155,0.03036003597,0.14381069670000002,0.052734375,0.92529296875,-0.10888671875
960,16.0,-0.07936219929,0.07297061277,0.19174759560000001,0.0986328125,1.0146484375,-0.119140625
961,16.017,-0.12836436261,0.02929477155,0.10120011990000001,0.07763671875,1.0595703125,-0.12255859375
962,16.033,-0.11132013189000001,-0.032490564810000004,0.02716424271,0.0029296875,1.0693359375,-0.125
963,16.05,-0.01225054083,-0.04687163448,-0.0037284254700000003,-0.03466796875,1.05029296875,-0.1376953125
964,16.067,0.08042746371000001,-0.10918960305,-0.01225054083,0.009765625,1.04345703125,-0.09521484375
965,16.083000000000002,0.05379585321,-0.17789915814,0.11291802852,0.05615234375,0.96533203125,-0.0703125
966,16.1,0.028762139340000003,-0.12090751167000001,0.16831177836,0.0546875,0.947265625,-0.08984375
967,16.117,-0.0031957932600000004,-0.048469531110000005,0.06338323299000001,0.06298828125,0.9931640625,-0.111328125
968,16.133,-0.046339002270000006,-0.03834951912,-0.02343581724,0.0439453125,0.99609375,-0.0927734375
969,16.15,-0.00426105768,-0.09960222327000001,-0.050600059950000005,-0.015625,0.94921875,-0.08837890625
970,16.167,0.07243798056,0.014381069670000001,-0.03621899028,0.01318359375,0.9091796875,-0.095703125
971,16.183,0.0585895431,0.05432848542,0.03888215133,0.0546875,0.9560546875,-0.107421875
972,16.2,0.020772656190000002,0.047936898900000004,0.03036003597,0.080078125,0.970703125,-0.11669921875
973,16.217,-0.047936898900000004,0.054861117630000004,0.048469531110000005,0.08447265625,0.9580078125,-0.10498046875
974,16.233,-0.08841694686000001,0.14594122554,0.026631610500000003,0.08740234375,0.955078125,-0.095703125
975,16.25,-0.07297061277,0.19920444654000002,-0.0106526442,0.0869140625,1.04931640625,-0.11083984375
976,16.267,-0.08309062476000001,0.10599380979,0.0053263221,0.080078125,1.06396484375,-0.1171875
977,16.283,-0.09853695885000001,0.12090751167000001,-0.00426105768,0.03662109375,1.09228515625,-0.14404296875
978,16.3,-0.052730588790000005,0.057524278680000006,-0.023968449450000002,0.0126953125,1.1376953125,-0.1484375
979,16.317,-0.0053263221,-0.06018743973000001,-0.06711165846,0.01318359375,1.0830078125,-0.1298828125
980,16.333000000000002,-0.018642127350000003,-0.07669903824,0.01118527641,0.05126953125,1.01416015625,-0.1103515625
981,16.35,-0.07084008393,-0.04207794459,0.059122175310000004,0.044921875,1.00927734375,-0.11376953125
982,16.367,-0.07456850940000001,-0.04101268017,0.08788431465,0.00927734375,0.9931640625,-0.11865234375
983,16.383,-0.03781688691,-0.034621093650000004,0.03781688691,0.00244140625,0.990234375,-0.12060546875
984,16.4,-0.041545312380000005,-0.06977481951,0.01225054083,0.01611328125,0.96923828125,-0.10302734375
985,16.417,-0.046339002270000006,-0.08735168244000001,0.07776430266,-0.02294921875,0.93115234375,-0.099609375
986,16.433,-0.00053263221,-0.01704423072,0.10492854537,-0.0166015625,0.90966796875,-0.09814453125
987,16.45,-0.00213052884,0.06018743973000001,0.09214537233,-0.0048828125,0.94580078125,-0.107421875
988,16.467,0.013848437460000002,0.07776430266,0.045806370060000004,0.00634765625,0.98876953125,-0.09912109375
989,16.483,0.0159789663,0.11238539631000001,0.012783173040000002,0.02001953125,0.98828125,-0.09765625
990,16.5,-0.0106526442,0.159789663,0.07084008393,0.02783203125,1.04931640625,-0.09033203125
991,16.517,-0.01171790862,0.09960222327000001,0.16405072068,-0.013671875,1.12060546875,-0.10302734375
992,16.533,0.053263221000000006,0.11291802852,0.14807175438,-0.01171875,1.11669921875,-0.11181640625
993,16.55,0.10705907421000001,0.0798948315,0.059654807520000006,0.033203125,1.1240234375,-0.13330078125
994,16.567,0.07669903824,0.11132013189000001,0.07456850940000001,0.068359375,1.13623046875,-0.134765625
995,16.583000000000002,0.08362325697,-0.057524278680000006,0.006924218730000001,0.03466796875,1.15966796875,-0.12158203125
996,16.6,0.06498112962000001,-0.15180017985000002,-0.03994741575,0.017578125,1.0244140625,-0.08544921875
997,16.617,0.08042746371000001,-0.15552860532,0.00426105768,-0.041015625,1.0205078125,-0.09423828125
998,16.633,0.12303804051,-0.14061490344000002,0.03834951912,-0.0302734375,1.02490234375,-0.0751953125
999,16.65,0.17204020383000002,-0.20399813643,0.06551376183,-0.01123046875,1.02197265625,-0.0654296875
1000,16.667,0.20719392969,-0.21891183831000002,0.0159789663,0.02783203125,0.982421875,-0.04736328125
1001,16.683,0.15712650195,-0.20399813643,0.059654807520000006,0.0576171875,0.89501953125,-0.02099609375
1002,16.7,0.15552860532,-0.03888215133,-0.0106526442,0.02490234375,0.91552734375,-0.01806640625
1003,16.717,0.21944447052000002,0.006924218730000001,-0.14540859333,0.02587890625,0.94287109375,0.00537109375
1004,16.733,0.22690132146000003,0.08841694686000001,-0.17204020383000002,0.041015625,0.90625,0.0068359375
1005,16.75,0.17736652593000002,0.27750138141,-0.06924218730000001,0.05859375,0.99072265625,-0.02197265625
1006,16.767,0.18588864129000002,0.28921929003,-0.037284254700000005,0.05908203125,1.1689453125,-0.0693359375
1007,16.783,0.11930961504000001,-0.08735168244000001,-0.0905474757,0.068359375,1.17919921875,-0.0654296875
1008,16.8,0.08042746371000001,-0.27750138141,-0.16245282405,0.041015625,1.009765625,0.00927734375
1009,16.817,0.08042746371000001,-0.23169501135,-0.10918960305,-0.0205078125,0.8740234375,0.0576171875
1010,16.833000000000002,0.12303804051,0.0106526442,-0.04953479553,-0.0458984375,0.85400390625,0.056640625
1011,16.85,0.13262542029000002,0.24074975892000003,0.023968449450000002,-0.0390625,0.95068359375,0.009765625
1012,16.867,0.13635384576,0.16192019184,0.07882956708000001,-0.001953125,1.08935546875,-0.03173828125
1013,16.883,0.13049489145,-0.0213052884,0.05805691089,-0.005859375,1.103515625,-0.0546875
1014,16.9,0.050600059950000005,-0.30679615296,-0.01651159851,0.00244140625,1.0,0.0263671875
1015,16.917,0.03781688691,-0.43143209010000005,0.20293287201000001,-0.07470703125,0.802734375,0.06884765625
1016,16.933,0.08149272813000001,-0.16245282405,0.21145498737,-0.1181640625,0.73095703125,0.0537109375
1017,16.95,0.15925703079,0.09640643001,0.22530342483000002,-0.07080078125,0.88232421875,0.03662109375
1018,16.967,0.19867181433,0.0426105768,0.27909927804,-0.00830078125,0.98486328125,-0.00341796875
1019,16.983,0.17257283604,-0.10279801653000001,0.29294771550000004,0.04443359375,1.03125,-0.0205078125
1020,17.0,0.17363810046,-0.16724651394,0.14168016786,0.08203125,1.00146484375,0.015625
1021,17.017,0.13741911018,-0.21678130947000002,0.09321063675,0.07421875,0.91845703125,0.0244140625
1022,17.033,0.10279801653000001,-0.10279801653000001,0.0106526442,0.033203125,0.908203125,0.04296875
1023,17.05,0.16564861731000002,0.1278317304,0.018642127350000003,0.02294921875,0.93603515625,0.0302734375
1024,17.067,0.17736652593000002,0.15073491543,0.12836436261,0.07861328125,1.01611328125,0.0068359375
1025,17.083000000000002,0.14008227123,0.17789915814,0.06551376183,0.1162109375,1.07861328125,-0.03515625
1026,17.1,0.006391586520000001,0.043675841220000004,0.09427590117000001,0.1474609375,1.09228515625,-0.05126953125
1027,17.117,-0.10492854537,-0.04900216332,-0.13475594913,0.18994140625,1.03466796875,-0.0234375
1028,17.133,-0.24128239113000002,-0.053263221000000006,-0.10013485548,0.1494140625,0.94775390625,0.00732421875
1029,17.150000000000002,-0.26418557616,0.02929477155,0.061252704150000004,0.02490234375,0.91162109375,0.0078125
1030,17.167,-0.15446334090000002,0.15126754764,0.20825919411000002,-0.0107421875,0.98291015625,-0.0419921875
1031,17.183,-0.05592638205,0.14700648996000001,0.15659386974,0.03515625,1.12255859375,-0.0869140625
1032,17.2,-0.0015978966300000002,0.01651159851,-0.08841694686000001,0.0830078125,1.1083984375,-0.08544921875
1033,17.217,-0.07456850940000001,-0.17470336488000002,-0.14700648996000001,0.0791015625,1.00634765625,-0.05810546875
1034,17.233,-0.20559603306000002,-0.12676646598000002,0.12729909819000002,0.01806640625,0.89306640625,-0.03271484375
1035,17.25,-0.1171790862,0.17257283604,0.26312031174,-0.08349609375,0.94140625,-0.10302734375
1036,17.267,0.0639158652,0.32597091252000004,-0.026631610500000003,-0.0849609375,1.10009765625,-0.12451171875
1037,17.283,0.14008227123,0.06338323299000001,-0.18588864129000002,-0.05419921875,1.10205078125,-0.13427734375
1038,17.3,0.11291802852,-0.22317289599,-0.26738136942,0.001953125,0.99755859375,-0.0908203125
1039,17.317,0.01118527641,-0.23382554019000001,-0.15126754764,0.01513671875,0.8232421875,-0.03076171875
1040,17.333000000000002,0.01171790862,0.04953479553,-0.055393749840000006,-0.0234375,0.8466796875,-0.0234375
1041,17.35,0.10918960305,0.29134981887,-0.0798948315,-0.0205078125,0.9306640625,-0.0302734375
1042,17.367,0.24767397765000002,0.49907638077000005,-0.17417073267000002,0.017578125,1.0537109375,-0.083984375
1043,17.383,0.26791400163,0.41758365264,-0.17683389372000002,0.1044921875,1.17333984375,-0.12060546875
1044,17.400000000000002,0.11930961504000001,0.10759170642,-0.13369068471,0.16455078125,1.16064453125,-0.1064453125
1045,17.417,-0.052730588790000005,-0.10812433863000001,-0.05006742774,0.0869140625,1.056640625,-0.1064453125
1046,17.433,-0.04527373785,-0.14114753565000002,0.026631610500000003,0.00244140625,0.98828125,-0.08642578125
1047,17.45,0.02822950713,-0.03036003597,-0.023968449450000002,-0.04345703125,0.96044921875,-0.09326171875
1048,17.467,0.07137271614,0.022903185030000002,0.018642127350000003,-0.03759765625,1.00146484375,-0.1201171875
1049,17.483,0.07350324498000001,-0.056991646470000004,-0.05219795658,0.001953125,0.9970703125,-0.1083984375
1050,17.5,0.00266316105,-0.14061490344000002,0.07563377382,0.037109375,0.90869140625,-0.08837890625
1051,17.517,-0.055393749840000006,-0.06285060078,0.39734362866,0.04052734375,0.93359375,-0.083984375
1052,17.533,-0.07936219929,-0.021837920610000002,0.33502566009,-0.00537109375,0.97216796875,-0.09814453125
1053,17.55,0.014913701880000001,-0.025566346080000003,0.1864212735,0.00048828125,1.0126953125,-0.09765625
1054,17.567,0.054861117630000004,0.0015978966300000002,0.0213052884,-0.02685546875,1.04443359375,-0.1259765625
1055,17.583000000000002,0.0585895431,-0.039414783540000005,0.014913701880000001,-0.03515625,1.06982421875,-0.12744140625
1056,17.6,0.04527373785,-0.15233281206000002,0.057524278680000006,-0.0341796875,1.03857421875,-0.10693359375
1057,17.617,0.06498112962000001,-0.14168016786,0.014381069670000001,-0.05859375,0.98291015625,-0.09619140625
1058,17.633,0.13102752366,0.00585895431,-0.06338323299000001,-0.0234375,0.97998046875,-0.0673828125
1059,17.650000000000002,0.16671388173,0.10918960305,-0.07350324498000001,-0.01611328125,1.04736328125,-0.0791015625
1060,17.667,0.19068233118000003,0.13688647797,-0.0319579326,0.00732421875,1.08349609375,-0.1103515625
1061,17.683,0.17363810046,0.13156015587,0.01917475956,0.0244140625,1.14013671875,-0.140625
1062,17.7,0.13528858134000002,-0.05379585321,-0.0213052884,0.0341796875,1.1904296875,-0.14892578125
1063,17.717,0.07936219929,-0.27750138141,-0.02716424271,0.03271484375,1.07080078125,-0.12158203125
1064,17.733,0.05379585321,-0.22317289599,0.07510114161,0.0048828125,0.947265625,-0.1103515625
1065,17.75,0.09853695885000001,-0.07137271614,0.03888215133,-0.00439453125,0.95068359375,-0.10302734375
1066,17.767,0.13262542029000002,-0.00053263221,-0.02609897829,0.02978515625,0.98779296875,-0.0986328125
1067,17.783,0.10492854537,0.04687163448,-0.00852211536,0.0751953125,0.99951171875,-0.09716796875
1068,17.8,0.04474110564,0.09214537233,0.05006742774,0.06689453125,1.072265625,-0.109375
1069,17.817,0.06018743973000001,0.0426105768,-0.0031957932600000004,0.0634765625,1.1376953125,-0.12255859375
1070,17.833000000000002,0.0319579326,0.00053263221,-0.0031957932600000004,0.08740234375,1.17529296875,-0.13330078125
1071,17.85,-0.0426105768,-0.15819176637000001,-0.0053263221,0.10009765625,1.19189453125,-0.11376953125
1072,17.867,-0.06444849741,-0.29401297992000003,-0.07829693487,0.05810546875,1.12158203125,-0.0869140625
1073,17.883,-0.07137271614,-0.38402782341,-0.11664645399000001,0.02392578125,1.01513671875,-0.052734375
1074,17.900000000000002,-0.11398329294000001,-0.34141724661,-0.02450108166,-0.01611328125,0.9189453125,-0.00537109375
1075,17.917,-0.09640643001,-0.24234765555,0.05219795658,-0.072265625,0.88134765625,0.009765625
1076,17.933,-0.04740426669,-0.12996225924000002,0.11238539631000001,-0.0478515625,0.890625,0.0263671875
1077,17.95,-0.08894957907,-0.09214537233,0.24181502334000002,-0.02783203125,0.88427734375,0.04296875
1078,17.967,-0.07669903824,-0.01012001199,0.20399813643,-0.00439453125,0.8876953125,0.04345703125
1079,17.983,-0.12303804051,0.07243798056,0.34993936197000003,0.00634765625,0.9189453125,0.05419921875
1080,18.0,-0.10226538432000001,0.12090751167000001,0.32064459042000004,-0.01123046875,1.00439453125,0.03662109375
1081,18.017,0.00958737978,0.09853695885000001,0.11451592515,-0.00146484375,1.0771484375,0.0
1082,18.033,0.02609897829,0.02609897829,0.0106526442,0.04541015625,1.037109375,-0.01708984375
1083,18.05,-0.05006742774,-0.06338323299000001,0.04314320901,0.05078125,0.99560546875,-0.00244140625
1084,18.067,-0.15925703079,-0.13369068471,0.23329290798000002,0.01025390625,0.9248046875,0.0166015625
1085,18.083000000000002,-0.13369068471,-0.05592638205,0.35899410954000005,-0.0439453125,0.9140625,-0.01318359375
1086,18.1,0.006391586520000001,-0.00106526442,0.18056231919000001,-0.044921875,0.990234375,-0.05419921875
1087,18.117,0.10918960305,-0.11132013189000001,-0.050600059950000005,-0.01123046875,0.966796875,-0.0546875
1088,18.133,0.14860438659,-0.08415588918,-0.22690132146000003,0.02392578125,0.873046875,-0.02392578125
1089,18.150000000000002,0.14487596112,0.08841694686000001,-0.18482337687,0.02880859375,0.900390625,-0.01171875
1090,18.167,0.14274543228,0.12410330493,-0.14221280007,0.03173828125,0.9716796875,-0.0048828125
1091,18.183,0.16618124952000002,0.22050973494,-0.09427590117000001,0.06640625,1.0078125,-0.01611328125
1092,18.2,0.15819176637000001,0.24074975892000003,-0.03781688691,0.09716796875,1.14111328125,-0.0625
1093,18.217,0.11078749968000001,0.12729909819000002,-0.013848437460000002,0.1181640625,1.26953125,-0.10498046875
1094,18.233,0.04048004796,-0.21038972295000002,-0.09693906222000001,0.1279296875,1.2197265625,-0.0712890625
1095,18.25,-0.01704423072,-0.33396039567,-0.1331580525,0.05908203125,1.041015625,-0.03173828125
1096,18.267,0.01012001199,-0.25300029975,-0.18375811245,0.00732421875,0.96337890625,0.03515625
1097,18.283,0.048469531110000005,-0.13848437460000002,-0.14061490344000002,-0.013671875,0.931640625,0.05322265625
1098,18.3,0.050600059950000005,-0.015446334090000001,-0.01917475956,0.02294921875,0.98486328125,0.037109375
1099,18.317,-0.052730588790000005,-0.11877698283,0.17789915814,0.05029296875,1.00927734375,0.03466796875
1100,18.333000000000002,-0.12144014388,-0.17843179035,0.23382554019000001,0.0205078125,0.95166015625,0.0576171875
1101,18.35,-0.12410330493,-0.17683389372000002,0.20240023980000002,-0.03369140625,0.888671875,0.099609375
1102,18.367,0.00426105768,-0.07936219929,-0.02024002398,-0.06396484375,0.857421875,0.14892578125
1103,18.383,0.07456850940000001,0.18748653792,-0.056991646470000004,-0.04248046875,0.833984375,0.15087890625
1104,18.400000000000002,0.09640643001,0.42770366463000004,0.06924218730000001,-0.01953125,0.974609375,0.09619140625
1105,18.417,0.13475594913,0.40693100844,0.11558118957,0.0341796875,1.1650390625,0.01318359375
1106,18.433,0.047936898900000004,0.13582121355000001,0.18961706676,0.1318359375,1.2060546875,-0.0166015625
1107,18.45,-0.08894957907,-0.16724651394,0.18322548024000002,0.09619140625,1.1298828125,-0.01904296875
1108,18.467,-0.11398329294000001,-0.26844663384,0.09001484349000001,0.02197265625,0.97314453125,0.0390625
1109,18.483,-0.04740426669,-0.19867181433,0.00958737978,-0.01708984375,0.82275390625,0.08642578125
1110,18.5,0.0585895431,0.08149272813000001,0.04953479553,-0.0087890625,0.80517578125,0.0732421875
1111,18.517,0.08575378581000001,0.26258767953,-0.027696874920000003,0.07861328125,0.9013671875,0.03515625
1112,18.533,-0.06498112962000001,0.16831177836,0.20399813643,0.11669921875,0.93359375,0.02099609375
1113,18.55,-0.11930961504000001,0.14008227123,0.20666129748,0.0458984375,0.94140625,-0.00390625
1114,18.567,-0.05113269216000001,0.18216021582,0.0106526442,-0.00341796875,0.9013671875,-0.0048828125
1115,18.583000000000002,0.08575378581000001,0.32969933799,-0.23329290798000002,-0.0400390625,0.95068359375,-0.041015625
1116,18.6,0.19813918212,0.3675162249,-0.40266995076,-0.0087890625,1.05078125,-0.07568359375
1117,18.617,0.20506340085000002,0.24980450649000002,-0.43622577999,0.03515625,1.1240234375,-0.12158203125
1118,18.633,0.05645901426,0.07776430266,-0.23062974693000002,0.05126953125,1.10205078125,-0.12646484375
1119,18.650000000000002,-0.10546117758000001,-0.03355582923,0.04527373785,-0.033203125,1.09423828125,-0.11669921875
1120,18.667,-0.04207794459,-0.15446334090000002,0.05592638205,-0.11865234375,1.080078125,-0.09716796875
1121,18.683,0.10599380979,-0.12463593714000001,-0.10386328095000001,-0.08203125,0.98974609375,-0.07421875
1122,18.7,0.14860438659,-0.026631610500000003,-0.08681905023,-0.00146484375,0.95458984375,-0.06396484375
1123,18.717,0.09906959106,0.052730588790000005,-0.00266316105,0.03076171875,1.04345703125,-0.08447265625
1124,18.733,0.046339002270000006,-0.04101268017,0.04207794459,0.03173828125,1.11328125,-0.091796875
1125,18.75,0.02237055282,-0.16937704278000001,0.07243798056,0.02392578125,1.09521484375,-0.0869140625
1126,18.767,-0.00798948315,-0.16777914615,0.12463593714000001,0.06591796875,1.03955078125,-0.07177734375
1127,18.783,-0.06285060078,-0.159789663,0.16458335289,0.0849609375,1.044921875,-0.06884765625
1128,18.8,-0.08468852139000001,-0.1704423072,0.10386328095000001,0.0615234375,1.04638671875,-0.0625
1129,18.817,-0.04740426669,-0.16458335289,0.11558118957,0.017578125,1.06298828125,-0.06396484375
1130,18.833000000000002,-0.02450108166,-0.13741911018,0.0106526442,0.0234375,1.02490234375,-0.0703125
1131,18.85,-0.0426105768,-0.14753912217,0.027696874920000003,0.05322265625,1.03125,-0.05322265625
1132,18.867,-0.09108010791,-0.24234765555,0.04687163448,0.025390625,0.9970703125,-0.02734375
1133,18.883,-0.0585895431,-0.14540859333,0.046339002270000006,0.0078125,0.93359375,0.00634765625
1134,18.900000000000002,0.00905474757,0.034621093650000004,0.06072007194,0.01611328125,0.935546875,0.0078125
1135,18.917,0.05432848542,0.19813918212,0.11238539631000001,0.01318359375,1.02001953125,-0.02001953125
1136,18.933,0.08096009592,0.22210763157000002,0.10865697084,0.02099609375,1.1220703125,-0.0625
1137,18.95,0.08096009592,0.02450108166,0.11664645399000001,0.044921875,1.18798828125,-0.08544921875
1138,18.967,0.056991646470000004,-0.24554344881,0.03834951912,0.0830078125,1.11279296875,-0.0302734375
1139,18.983,0.006391586520000001,-0.39947415750000004,0.03568635807,0.0576171875,0.890625,0.04443359375
1140,19.0,-0.02822950713,-0.21411814842000002,0.17683389372000002,-0.00537109375,0.7236328125,0.11181640625
1141,19.017,0.02609897829,0.15393070869,0.27696874920000003,-0.06201171875,0.791015625,0.12060546875
1142,19.033,0.11451592515,0.28602349677,0.28495823235,-0.04248046875,0.92919921875,0.09912109375
1143,19.05,0.19867181433,0.28069717467,0.21411814842000002,0.03857421875,1.0390625,0.05078125
1144,19.067,0.15499597311000002,0.18482337687,0.20506340085000002,0.11181640625,1.076171875,0.01416015625
1145,19.083000000000002,0.0585895431,0.07882956708000001,0.18002968698000002,0.1240234375,1.0751953125,0.00244140625
1146,19.1,0.0031957932600000004,-0.032490564810000004,0.10066748769,0.0595703125,1.06689453125,0.0107421875
1147,19.117,0.02503371387,-0.06817692288,0.06551376183,0.0068359375,1.00244140625,0.03759765625
1148,19.133,0.07510114161,-0.03302319702,0.09267800454000001,-0.0107421875,1.00439453125,0.0439453125
1149,19.150000000000002,0.14594122554,-0.00053263221,0.06498112962000001,0.0224609375,1.03564453125,0.04443359375
1150,19.167,0.13741911018,-0.032490564810000004,0.05006742774,0.0703125,1.0224609375,0.0556640625
1151,19.183,0.12463593714000001,-0.0106526442,0.07616640603000001,0.10009765625,1.0341796875,0.0546875
1152,19.2,0.10226538432000001,-0.00266316105,0.0319579326,0.1123046875,1.1015625,0.0283203125
1153,19.217,0.07350324498000001,-0.12942962703000002,-0.017576862930000003,0.11083984375,1.12890625,0.02587890625
1154,19.233,0.0639158652,-0.21305288400000003,-0.0798948315,0.04833984375,1.064453125,0.0205078125
